PacketCounter,SampleTimeFine,Pelvis_Acc_X,Pelvis_Acc_Y,Pelvis_Acc_Z,Pelvis_Gyr_X,Pelvis_Gyr_Y,Pelvis_Gyr_Z,RT_Acc_X,RT_Acc_Y,RT_Acc_Z,RT_Gyr_X,RT_Gyr_Y,RT_Gyr_Z,LT_Acc_X,LT_Acc_Y,LT_Acc_Z,LT_Gyr_X,LT_Gyr_Y,LT_Gyr_Z,RS_Acc_X,RS_Acc_Y,RS_Acc_Z,RS_Gyr_X,RS_Gyr_Y,RS_Gyr_Z,LS_Acc_X,LS_Acc_Y,LS_Acc_Z,LS_Gyr_X,LS_Gyr_Y,LS_Gyr_Z
52288,0,9.978306,-1.536395,-0.080979,0.403176,0.074616,0.263673,10.165333,-1.517088,2.308879,0.173722,0.423547,0.237466,9.231791,0.793231,-2.589987,0.304299,-0.065918,0.145569,11.330528,-4.165257,2.026997,-0.504469,-0.370226,1.356503,9.586244,0.82585,-2.063415,0.268364,0.048065,0.231057
52289,0,10.469983,-1.291866,-0.156769,0.388643,0.128746,0.361635,9.909032,-4.095262,0.331904,0.061455,0.224305,0.324555,9.2131,0.728112,-3.207274,0.28759,-0.062714,0.146942,9.558237,-0.672536,-0.251368,1.214608,-0.612053,1.196182,9.649392,0.809239,-2.500285,0.17807,0.072441,0.273743
52290,0,10.041262,-1.230927,-0.069339,0.359002,0.134697,0.396425,10.595799,-3.68911,0.105374,0.271913,0.186768,0.43213,9.319442,0.507202,-2.891394,0.2948,-0.056305,0.167999,9.068692,5.326031,-3.674725,1.403684,-0.787276,1.218281,9.705846,-0.26158,-2.445938,0.151978,0.091095,0.298005
52291,0,9.660716,-1.248038,-0.326213,0.329591,0.136528,0.388643,9.721761,-2.51813,1.094945,0.564884,0.306361,0.451358,9.462564,0.228622,-2.548692,0.295372,-0.037079,0.225678,9.671065,6.580305,-4.825885,-0.007668,-0.497603,1.470378,9.78136,-0.728837,-2.041246,0.13607,0.107117,0.331879
52292,0,9.653752,-1.298155,-0.397395,0.294801,0.172234,0.385667,8.55393,-2.463814,0.955908,0.693404,0.360492,0.405124,9.440971,0.243328,-1.947326,0.227623,-0.02861,0.290223,7.574165,1.486401,-2.547441,-0.722268,-0.413607,1.73271,9.567853,-0.243472,-1.600898,0.062943,0.094185,0.358315
52293,0,9.447893,-1.444317,-0.315334,0.300866,0.182191,0.379945,8.233981,-1.956147,0.36461,0.74433,0.281184,0.306246,9.339399,0.550438,-1.593448,0.209313,-0.039826,0.326386,7.040263,-0.781127,-1.451419,-0.256703,-0.804786,1.814659,9.427435,0.06779,-1.580497,-0.06134,0.065575,0.406037
52294,0,9.068421,-1.595535,-0.189168,0.300981,0.175553,0.365754,7.925355,-1.715697,-0.283866,0.606884,0.184136,0.271684,9.297707,1.385483,-1.721308,0.243989,-0.008926,0.344125,8.402623,0.715995,-1.462457,0.273071,-1.005305,1.925232,9.367677,0.833103,-1.260719,-0.103226,0.023804,0.462228
52295,0,8.736795,-1.56405,0.045618,0.256806,0.178643,0.357514,7.582081,-2.631383,-0.645324,0.469324,0.057221,0.28061,9.593956,2.245712,-1.48789,0.188713,0.031128,0.326844,9.609503,2.488032,-1.812899,0.274673,-0.752491,2.03945,9.465071,2.276277,-0.652411,-0.092354,0.016937,0.490724
52296,0,8.512807,-1.426791,0.184483,0.231743,0.159989,0.310364,7.811535,-3.128947,-0.69353,0.427095,-0.058022,0.292397,9.613876,2.324861,-0.976563,0.071526,0.064087,0.268593,9.110973,-0.473217,-1.617696,0.306147,-0.475415,2.139022,9.486784,1.226652,-0.697636,-0.205995,-0.062828,0.578959
52297,0,8.309961,-1.448358,0.12942,0.234375,0.13607,0.241242,7.583783,-3.810971,-0.639488,0.526888,-0.125771,0.34012,9.483402,0.711834,-0.653855,-0.025177,0.111809,0.262299,9.2724,-1.897352,-1.537785,0.964227,-0.41705,2.115463,9.258159,0.188109,-0.730986,-0.204507,-0.128632,0.615695
52298,0,8.253017,-1.68043,0.009111,0.248223,0.089607,0.147858,7.318703,-4.432185,-0.327556,0.563739,-0.144425,0.337831,9.542727,-0.350959,-0.457913,0.065918,0.142594,0.295716,9.222458,-0.27825,-2.513794,1.587419,-0.382491,2.009967,9.661986,-0.977806,-0.784681,-0.102082,-0.207597,0.626453
52299,0,8.385209,-2.142746,-0.014085,0.271454,0.043602,0.057678,7.60289,-4.369238,0.55637,0.802009,-0.001717,0.292971,9.889575,-0.684778,0.042666,0.224762,0.19146,0.31128,9.262469,1.583608,-3.757511,1.362974,-0.319542,2.043144,9.599083,-0.993088,-0.662318,0.029869,-0.270998,0.646824
52300,0,8.483722,-2.542504,0.002711,0.395051,-0.018654,-0.050697,7.504834,-3.326142,1.516828,1.020254,0.143053,0.234264,10.246507,-0.424227,0.833511,0.438883,0.29503,0.254632,8.891119,1.523396,-3.026268,0.686458,-0.210241,2.165353,9.508554,-0.658231,-0.002914,0.20611,-0.342639,0.680699
52301,0,8.532896,-2.87506,-0.19133,0.62588,-0.06958,-0.164796,7.764373,-2.549203,2.677037,1.126575,0.308194,0.163424,10.417038,-0.126263,1.413156,0.670629,0.451015,0.109406,9.329866,0.085934,-2.189773,0.141457,-0.277307,2.25279,9.849779,-0.72015,0.688168,0.429845,-0.479627,0.729226
52302,0,8.488657,-3.401324,-0.478307,0.856026,-0.11902,-0.22053,7.867797,-2.236695,2.560385,0.858315,0.287478,0.144083,10.405994,-2.006647,0.30497,0.920116,0.405354,-0.044175,10.137991,-2.409668,-1.596416,0.191013,-0.255791,2.260573,10.251297,-3.404643,-1.186313,0.666514,-0.509499,0.7916
52303,0,8.946649,-2.95734,-0.774455,0.955364,-0.192606,-0.203707,8.680585,-2.319238,1.647146,0.659641,0.167199,0.189973,9.242437,-4.977186,-2.710687,1.329031,0.276953,0.083315,10.606029,-2.404734,-1.429798,0.650406,-0.202572,2.15814,9.95398,-3.789645,-3.613622,0.776837,-0.456283,0.724651
52304,0,10.164427,-2.02395,-1.065373,0.93671,-0.22568,-0.250628,9.14925,-2.707804,1.76332,0.548174,0.148202,0.230142,9.743167,-3.05214,-4.760232,1.696646,0.172354,0.349858,10.538694,-0.994861,-2.103452,1.064938,-0.158396,2.032366,9.859128,-3.621003,-4.643749,0.849164,-0.332913,0.653582
52305,0,10.836972,-1.86644,-0.575478,0.899172,-0.202792,-0.345158,9.441828,-3.253063,1.926316,0.393335,0.23758,0.233002,10.34381,-0.838739,-3.953845,1.509291,0.155759,0.484328,10.224877,1.064969,-3.723217,1.011256,-0.255332,1.92134,10.287714,-3.073401,-3.71601,0.933966,-0.219272,0.569008
52306,0,10.959371,-2.195161,-0.116787,0.90707,-0.185854,-0.445181,9.767623,-3.609282,1.987979,0.12703,0.21698,0.234833,10.885254,0.051225,-2.446193,1.18277,0.199703,0.501261,10.575841,2.156669,-4.812652,0.480444,-0.237819,1.874281,10.333209,-2.100689,-1.962445,1.006867,-0.15404,0.550469
52307,0,10.747241,-2.402046,0.187769,0.953535,-0.163767,-0.477912,9.631222,-3.896365,1.905051,0.001488,0.145569,0.27237,10.976744,-0.255314,-0.711933,1.006638,0.363584,0.441749,10.571137,1.953248,-4.371026,-0.231065,-0.1941,1.828839,10.828392,-2.03666,-0.822586,1.094991,-0.186199,0.612041
52308,0,10.507733,-2.466268,0.05784,1.005493,-0.131723,-0.478828,9.59275,-3.752193,0.978329,0.077477,0.005264,0.267792,10.762624,-1.019144,0.228442,0.939917,0.492561,0.312771,10.597947,0.573136,-3.966587,-0.435235,-0.263224,1.715876,10.928047,-1.300836,-0.459946,1.233474,-0.268599,0.693643
52309,0,10.483891,-1.868043,-0.093543,0.895396,-0.100595,-0.423436,9.649727,-2.430783,0.803606,0.288849,-0.052528,0.195465,10.347414,-1.952349,-2.172213,1.037882,0.522317,0.250401,9.964732,0.770914,-3.457769,-0.192152,-0.378124,1.543167,11.418328,-2.220974,-2.348141,1.184263,-0.231062,0.774555
52310,0,10.964568,-1.150595,-0.522474,0.720755,-0.061341,-0.388873,9.319865,-1.369645,1.426032,0.292855,-0.143166,0.21389,11.227397,-2.683765,-3.871768,1.520281,0.433287,0.451484,9.044713,1.87097,-3.913031,0.015679,-0.472996,1.358446,11.139349,-3.588678,-3.590656,1.227637,-0.067865,0.741824
52311,0,11.238599,-0.982554,-0.984346,0.545772,-0.040741,-0.427096,8.203042,-0.848856,1.441647,-0.188027,-0.481112,0.330507,10.961524,-1.880772,-4.35416,1.478739,0.399183,0.673392,8.175091,2.732638,-4.674029,0.071069,-0.584576,1.18609,11.013292,-3.071763,-4.00722,1.21951,0.096705,0.661941
52312,0,10.866986,-1.419558,-1.073551,0.426524,-0.010529,-0.526088,7.372849,-1.361463,0.561974,-0.548522,-0.750055,0.379605,10.482227,-0.073878,-3.215889,1.191819,0.406619,0.806143,8.322023,4.365439,-4.588561,-0.339553,-0.68025,1.018429,10.73176,-2.744675,-3.202845,1.148438,0.222478,0.630468
52313,0,10.048279,-1.872447,-0.823894,0.356715,0.064545,-0.628971,6.856671,-2.348432,-0.939919,-0.802018,-0.985012,0.314032,10.618404,0.628693,-1.116278,0.861986,0.477113,0.831773,8.204339,3.603113,-3.139024,-0.865536,-0.606551,0.926077,10.716473,-2.028133,-1.611846,1.207608,0.304076,0.62715
52314,0,9.240665,-2.352507,-0.748093,0.392078,0.091325,-0.722471,7.353263,-2.622937,-0.550533,-0.779587,-1.024724,0.239415,10.63235,0.819235,0.824004,0.764479,0.62669,0.757498,8.707527,1.357929,-1.189782,-1.084352,-0.556539,0.699136,10.927721,-1.654386,0.079565,1.336821,0.332002,0.706921
52315,0,8.716752,-2.689033,-0.590436,0.41531,0.11078,-0.822152,7.689479,-2.742514,0.31389,-0.754753,-1.062491,0.185856,11.077959,1.040392,1.917172,0.86439,0.817583,0.617994,8.665498,-1.679074,0.658512,-0.592237,-0.453647,0.384067,10.972557,-0.934747,1.644984,1.331789,0.25956,0.887173
52316,0,8.408859,-2.612623,-0.634345,0.358547,0.170519,-0.893908,6.967163,-3.987601,0.480745,-0.678875,-1.025752,0.058595,11.224672,2.172285,3.148624,0.975293,1.153483,0.422299,8.252844,-2.841399,1.719454,0.464976,-0.418856,-0.027237,11.180841,-0.560947,3.230093,1.374142,0.136647,1.11172
52317,0,7.653954,-2.242149,-0.599585,0.304989,0.154726,-0.929729,5.974979,-5.708186,0.711414,-0.34699,-1.04818,-0.212405,11.0909,3.571046,5.015308,0.975535,1.633942,0.111241,8.115565,-2.560241,1.948947,1.529435,-0.263108,-0.495316,11.546631,0.882955,4.277434,1.513899,-0.104719,1.397164
52318,0,7.209425,-2.517748,-0.039374,0.57908,0.256123,-0.937056,4.871702,-6.341224,1.041788,0.176929,-1.094304,-0.557795,10.247719,4.738362,6.746037,0.978875,2.096346,-0.277537,7.692374,-1.759399,2.904502,2.382387,-0.071417,-1.014483,12.255625,3.27377,4.470077,1.507167,-0.399538,1.728739
52319,0,6.249157,-2.925932,0.415061,1.052998,0.298927,-0.99383,5.678493,-6.485207,0.738884,0.720541,-1.007453,-1.004363,9.460713,6.29065,7.501726,1.055696,2.447078,-0.732029,8.514197,-2.634459,-1.085116,3.74859,0.137815,-1.885455,13.177134,5.596802,4.13926,1.230679,-0.727443,2.166764
52320,0,6.921258,0.070727,5.512318,1.590804,0.7534,-1.002321,19.285664,-7.474093,2.569646,1.607773,-0.685203,-1.639132,9.046775,6.779433,5.821728,1.065227,2.705702,-1.312563,20.792682,-20.622193,-15.867579,3.510283,-0.322207,-1.598101,17.02596,7.299029,0.528225,0.479783,-1.159285,2.621526
52321,0,10.963396,6.508945,8.782846,0.973351,1.174659,-0.676597,33.237294,-19.352937,10.811591,1.8705,-0.089611,-0.266429,13.321186,5.111927,1.524922,0.415351,2.398942,-1.857807,22.762497,4.870355,6.554236,1.437628,0.278804,-2.453387,20.788692,8.960799,-5.626252,-0.754494,-1.344973,3.008821
52322,0,20.343172,11.943509,4.751481,0.417946,1.235529,-0.064203,18.512129,4.24773,5.349921,2.728681,1.092228,0.831961,20.781163,2.133224,-4.028258,-0.685474,2.075422,-2.500624,13.545635,-0.937896,7.855766,1.886755,-0.070278,-3.269659,13.878547,-1.634662,-9.365743,-1.105089,-1.491041,3.037707
52323,0,12.468298,3.603839,0.670997,0.546116,0.446437,-0.326846,6.322413,28.119671,-2.571147,0.603804,0.756815,1.000694,19.063552,-1.267866,-4.61643,-1.069052,2.090603,-2.917802,8.585921,11.751452,-3.788728,0.551777,-0.099345,-2.935484,9.531827,-8.312886,-12.146464,-0.515378,-1.584934,2.393424
52324,0,6.87253,-1.610969,4.284611,0.087548,0.414507,-0.479052,-1.550116,11.698839,-8.551144,-2.864762,-0.628004,0.783432,16.430789,-4.950677,-3.721399,-1.194266,2.200476,-2.729048,6.643038,12.098477,-3.701548,-0.609549,-0.035136,-2.211248,10.952539,-4.980046,-7.018898,0.912131,-1.144798,1.146401
52325,0,11.265643,3.231015,5.597008,-0.269166,0.482142,-0.221559,8.350398,4.10249,-9.169064,-2.646025,-1.285529,-0.107127,12.981373,-6.259236,-2.927801,-0.568487,2.076173,-2.077547,10.603815,3.734582,0.616507,-0.124973,-0.152326,-1.651206,5.997379,6.403961,-3.116392,1.853104,-0.211381,-0.331892
52326,0,17.541972,7.802403,5.005173,-0.485117,0.300409,-0.056305,18.413802,-1.348788,-7.222849,-1.684653,-0.886961,-0.789223,9.555237,-3.713648,-1.765127,0.083089,1.343609,-1.681914,10.709023,7.459677,-1.12649,0.173953,-0.09041,-1.22557,9.382307,11.358564,2.766437,1.168492,0.631055,-1.405624
52327,0,16.478018,5.783578,2.955734,-0.693517,0.186883,-0.317232,13.625934,0.005513,-5.518175,-0.714466,-0.66743,-0.631724,8.156135,-1.384235,-1.05974,0.47804,0.487539,-1.792221,11.147483,4.915736,-0.190719,-0.327647,-0.146028,-0.71549,8.427823,8.474507,2.587743,-0.20681,1.42375,-2.071991
52328,0,10.975241,4.51867,2.771093,-0.707366,0.159303,-0.516133,10.460982,0.564318,-3.714617,-0.278324,-0.504806,-0.956969,7.88691,-0.369783,0.60495,0.141798,0.069583,-1.917425,10.848216,1.828628,-1.205171,-0.176011,-0.086632,-0.514185,9.18697,7.088315,0.992003,-1.612514,1.915719,-2.867111
52329,0,7.829971,3.571501,2.504587,-0.722701,0.115815,-0.523687,10.470527,-1.103169,-2.779106,-0.211032,-0.391279,-0.983747,7.289957,0.302757,1.749644,-0.554375,-0.152327,-1.801375,10.01161,1.437526,-2.672576,-0.271455,0.014763,-0.390016,9.172948,0.663705,-1.324414,-2.497672,2.287157,-3.500564
52330,0,6.633305,2.731403,1.903706,-0.722243,0.065575,-0.478253,9.735389,-2.460081,-0.859388,-0.396313,-0.298808,-0.826501,6.225107,0.776289,0.844187,-1.050499,-0.453091,-1.555891,9.836713,-1.122432,-3.037585,-0.406839,0.109291,-0.379831,9.775068,-4.625225,-2.815589,-1.859092,2.741931,-3.946678
52331,0,5.901175,2.412561,1.761094,-0.716749,0.072327,-0.419773,9.150303,-3.703314,-0.5935,-0.579419,-0.199129,-0.576787,5.199124,0.224086,0.163807,-1.412613,-0.665163,-1.333073,9.372993,-1.706917,-3.474109,-0.444377,0.192262,-0.487063,10.26401,-4.985832,-2.230674,-0.885152,3.151036,-4.25221
52332,0,5.318717,2.379989,1.887193,-0.803726,0.042572,-0.427899,8.115703,-3.857057,-1.098253,-0.63332,-0.08709,-0.338175,5.592143,-0.834429,0.151436,-1.620568,-0.746766,-1.146071,8.553786,-1.183897,-4.27934,-0.426753,0.247652,-0.615124,12.432568,-3.996579,-1.339009,-0.518838,3.394313,-4.486482
52333,0,5.373244,2.822292,1.963459,-0.9699,-0.086976,-0.488441,7.649435,-2.373115,-0.912542,-0.74513,0.049897,-0.313113,6.917724,-1.918579,1.492215,-1.742219,-0.498529,-0.965471,7.520618,0.930704,-4.45873,-0.539708,0.197412,-0.681159,13.290456,-4.633498,-0.225327,-0.784461,3.485537,-4.640361
52334,0,5.743197,3.799335,2.044938,-1.142371,-0.296865,-0.515795,6.446951,-0.888109,-1.304399,-1.033873,0.046464,-0.331654,7.606926,-0.895379,3.136343,-1.823126,-0.199594,-0.736804,7.350012,1.516617,-4.276864,-0.781756,0.090753,-0.724306,13.035229,-3.970646,-1.14616,-1.353799,3.479349,-4.495643
52335,0,6.123768,4.538147,1.752888,-1.269294,-0.389566,-0.517743,7.578363,-0.716591,-1.49998,-1.444738,-0.009499,-0.255896,7.122042,2.032725,4.556819,-2.055468,-0.143631,-0.573608,7.998978,0.537419,-3.95739,-1.025296,0.013733,-0.796982,12.245324,-4.127047,-2.901906,-2.165868,3.2476,-3.884115
52336,0,6.322188,4.379778,1.946818,-1.38546,-0.425847,-0.557686,8.594703,-2.14781,-1.723854,-1.854932,0.020257,-0.070613,7.074946,3.96238,5.410527,-2.443837,-0.218141,-0.602118,9.58677,-1.024692,-3.755703,-1.101749,0.10689,-0.899412,11.156546,-5.071284,-4.70647,-2.682226,2.837337,-3.044076
52337,0,6.968271,3.960762,2.192163,-1.439253,-0.462699,-0.610218,9.553326,-3.450216,-1.590804,-1.737618,0.151067,0.10712,8.587098,3.863489,6.515499,-2.444072,-0.287497,-0.716455,10.110969,0.035285,-2.042409,-1.064671,0.189977,-1.028621,9.322885,-4.504995,-5.004511,-2.794769,2.165328,-2.328669
52338,0,7.937364,3.618998,2.229857,-1.505637,-0.566273,-0.621893,8.874288,-3.14098,-1.2759,-1.424139,0.275352,0.254409,10.121654,2.852736,7.253349,-2.007636,-0.192729,-0.908255,9.714735,0.16165,-1.347372,-0.865881,0.211492,-1.145582,8.649058,-5.016096,-4.178658,-2.619688,1.405988,-1.778773
52339,0,8.383721,3.027718,1.622328,-1.627759,-0.68942,-0.618006,9.363284,-1.468655,-0.90518,-1.147977,0.311742,0.254521,9.603412,1.493831,8.696057,-1.554512,0.010987,-0.988808,8.355345,1.935987,-1.478292,-0.743769,0.218359,-1.214476,7.801322,-5.910406,-3.498184,-1.992219,0.681202,-1.383463
52340,0,8.285433,2.45505,1.532064,-1.712114,-0.796202,-0.620985,8.438774,1.459853,-1.110394,-1.245601,0.416688,0.262991,8.140326,-0.042851,5.233418,-1.704331,-0.158737,-0.979887,7.976526,3.697036,-1.687378,-0.990399,0.118907,-1.168588,8.622932,-4.791725,-2.690394,-1.560582,0.154158,-1.072471
52341,0,8.504881,2.732249,1.680346,-1.734433,-0.820809,-0.607939,8.962737,1.108931,-2.437536,-1.485026,0.377322,0.1236,7.690688,0.116716,1.88344,-1.777005,-0.062259,-0.885355,9.119933,2.350094,-2.311046,-1.129678,0.147404,-1.046019,9.124782,-3.707982,-2.073349,-1.554161,-0.137677,-0.737025
52342,0,9.611096,3.834975,1.653822,-1.737065,-0.794944,-0.609655,9.195634,-1.02698,-3.327383,-1.655214,0.387395,0.025636,8.843439,0.715803,-1.610757,-1.608301,-0.356268,-0.795281,9.64149,2.64371,-2.576521,-0.981354,0.259673,-1.01935,9.961974,-2.932668,-1.785573,-1.868328,-0.217104,-0.425281
52343,0,10.460478,3.436246,1.54532,-1.75549,-0.699495,-0.651886,9.03536,-2.297344,-3.540957,-1.48903,0.29023,0.015107,10.270666,-0.705001,-1.422907,-1.671705,-0.241709,-0.776856,9.783777,2.606188,-2.905308,-0.824335,0.354316,-0.994283,9.729954,-3.082835,-1.336689,-2.079155,-0.238965,-0.229809
52344,0,10.291729,1.967386,1.451638,-1.757206,-0.629797,-0.666649,10.038079,-3.215041,-3.965259,-1.366569,0.240789,0.007439,9.477824,-0.811999,1.024598,-1.839722,-0.111928,-0.75935,9.475935,2.054796,-2.123315,-0.567752,0.431221,-1.023349,9.023032,-2.258991,-1.234417,-2.260917,-0.317707,-0.102316
52345,0,9.302063,0.829349,1.49935,-1.717032,-0.649595,-0.634488,9.431729,-2.699563,-2.169134,-0.935222,0.347103,0.036622,9.212507,0.096922,2.157525,-1.803093,-0.1529,-0.636776,8.723802,2.550033,-1.261318,-0.285192,0.450561,-1.081256,8.758811,-3.292983,-1.476201,-2.269275,-0.451269,-0.025179
52346,0,7.914166,0.89922,0.99606,-1.520631,-0.681978,-0.584471,8.5539,0.086713,0.130503,-0.641789,0.442661,0.021172,8.635762,0.705014,2.066789,-1.874854,-0.11353,-0.521416,7.184088,4.59725,-1.162745,-0.472419,0.423209,-0.962234,8.541729,-4.463886,-1.405055,-1.92613,-0.559871,-0.00618
52347,0,8.381511,1.870849,1.193867,-1.31233,-0.657367,-0.497145,10.221688,-0.208831,-0.068372,-0.763557,0.460629,-0.206911,8.713531,0.705938,1.590148,-1.933683,-0.043375,-0.491203,9.903154,3.679127,-0.815153,-0.731518,0.459259,-0.807508,9.59162,-5.244126,-0.170801,-1.353184,-0.61834,0.059511
52348,0,10.299711,2.690443,1.34359,-1.247665,-0.582175,-0.407076,10.907493,-1.642508,-0.43587,-0.810022,0.488783,-0.348934,9.674774,-0.953274,1.411284,-2.08534,-0.065235,-0.529203,11.00307,1.673659,-0.879956,-0.703594,0.481232,-0.789998,11.048707,-3.509784,1.926815,-1.173499,-0.44896,0.246739
52349,0,11.542066,2.82644,1.220033,-1.246861,-0.449992,-0.391854,10.696474,-1.925168,-1.496237,-0.768021,0.527349,-0.232089,11.522922,-3.294639,2.776175,-2.074238,-0.051616,-0.558959,10.384928,3.239847,-1.526661,-0.569466,0.506866,-0.831311,9.829053,-1.562504,-0.993911,-1.20154,-0.542919,0.235753
52350,0,10.980653,1.37115,1.0283,-1.150153,-0.388649,-0.427903,9.845078,0.09588,-1.993239,-0.713203,0.530782,-0.190203,11.438586,-3.088717,4.636315,-1.609782,0.072787,-0.625441,8.369898,4.947748,-2.176781,-0.591439,0.477912,-0.801899,9.829976,-1.870171,0.351274,-1.34472,-0.809121,0.184713
52351,0,10.085018,1.024732,1.075832,-1.004348,-0.328107,-0.405585,9.478624,0.559599,-1.604914,-0.834055,0.451475,-0.311283,9.539903,-2.215433,3.728584,-0.961661,-0.137331,-0.564431,8.148896,5.034013,-1.366049,-0.663766,0.453764,-0.726481,9.846066,-3.841522,0.996133,-0.938775,-0.794692,0.032502
52352,0,9.552677,1.774637,0.944345,-0.923893,-0.297092,-0.339207,9.714843,0.348753,-0.785967,-0.98661,0.391394,-0.380064,8.831973,-1.34939,2.396828,-0.428927,-0.22648,-0.444491,8.003916,4.771407,-0.739021,-0.636643,0.417257,-0.690545,9.741025,-3.335783,0.75018,-0.205766,-0.683789,-0.125314
52353,0,9.496408,2.372776,0.770556,-0.87697,-0.291599,-0.253146,9.191255,0.109436,-1.264649,-1.016136,0.309911,-0.426642,8.51478,-0.287802,1.968015,-0.128517,-0.181275,-0.412446,7.671972,4.798047,-0.867981,-0.590521,0.375942,-0.6276,9.735038,-2.632152,1.43804,0.160218,-0.554697,-0.077362
52354,0,9.715899,2.714868,0.631509,-0.853738,-0.300525,-0.177843,9.209425,-1.384383,-1.651538,-0.929502,0.188601,-0.569466,8.44207,0.160927,2.134874,-0.308305,-0.168229,-0.462572,9.055131,3.32239,-0.338338,-0.525174,0.459256,-0.56706,8.991482,-0.884781,1.867672,0.198327,-0.459024,-0.047951
52355,0,9.868294,3.010497,0.573249,-0.835884,-0.275462,-0.096131,10.123167,-2.252622,-1.299851,-0.682419,0.157473,-0.732888,8.037852,1.008026,1.933015,-0.60368,-0.19272,-0.433047,9.405587,3.765759,-0.755556,-0.30247,0.565343,-0.548863,9.060059,-0.542059,2.719384,-0.063515,-0.308075,-0.066834
52356,0,9.845379,3.005318,0.396201,-0.831192,-0.290225,0.026551,10.290817,-2.054513,-0.751771,-0.337375,0.185053,-0.786445,8.371038,1.281353,1.602088,-0.646824,-0.178414,-0.276033,9.488569,3.992465,-0.670701,-0.245821,0.584683,-0.546574,9.304653,-0.719119,3.105523,-0.275917,-0.072327,-0.169373
52357,0,10.012523,2.845623,0.000998,-0.812652,-0.306018,0.12108,9.830476,-1.191982,-0.219912,-0.191805,0.111352,-0.823524,8.143534,0.819792,2.116847,-0.708966,-0.177613,-0.069123,9.739751,4.080404,-0.394295,-0.19993,0.607915,-0.541997,9.39798,-0.941027,3.092485,-0.281411,0.189972,-0.281068
52358,0,10.049016,2.794295,-0.218625,-0.749251,-0.327189,0.189516,10.587712,-0.46612,0.302341,-0.077935,0.076333,-0.887612,8.940163,0.407404,2.706154,-0.735059,-0.192376,0.010414,9.353217,4.910903,-0.037403,-0.325244,0.600362,-0.499653,9.640437,0.022799,3.300678,-0.149804,0.364038,-0.417825
52359,0,9.872299,2.482811,-0.089405,-0.64156,-0.338633,0.252687,10.825722,1.353934,0.616585,-0.162966,0.076562,-0.930643,9.697767,-0.218628,3.646044,-0.693974,-0.139047,0.042115,9.421984,5.124613,0.678919,-0.417484,0.537533,-0.464176,10.239748,0.100355,3.309781,0.134583,0.506405,-0.574497
52360,0,10.04138,2.43383,0.28836,-0.518649,-0.356943,0.308534,11.365021,2.066943,0.190733,-0.431334,0.106431,-0.983061,9.864283,-0.890492,4.625653,-0.54497,-0.085259,0.036736,9.370893,5.670782,0.405594,-0.507778,0.49416,-0.401691,9.843552,1.792086,2.396448,0.322613,0.575874,-0.818835
52361,0,10.262542,2.475772,0.617119,-0.430415,-0.365297,0.360949,11.73016,2.229797,-0.611767,-0.777756,0.154384,-1.039144,9.501036,-0.474879,4.775118,-0.222931,-0.131264,0.011444,8.941021,6.153493,0.133179,-0.583081,0.452732,-0.315859,9.855782,2.830049,1.072103,0.340582,0.529756,-1.022661
52362,0,10.461031,2.517324,0.60801,-0.347101,-0.391275,0.392077,11.302877,1.671996,-1.775475,-0.937637,0.221906,-1.076228,9.482699,0.907946,4.308815,0.170059,-0.292511,-0.053902,9.307952,5.933177,-0.213673,-0.677839,0.456509,-0.208742,10.283926,2.796867,0.446119,0.430764,0.452966,-1.178308
52363,0,10.664111,2.535443,0.620576,-0.250741,-0.371248,0.424349,10.935042,0.549192,-2.673803,-0.865538,0.199132,-1.152219,10.130892,2.300965,3.794843,0.4303,-0.36976,-0.155183,9.373256,4.955989,-0.667019,-0.512126,0.520023,-0.11673,10.75542,2.40413,0.500079,0.678079,0.373087,-1.253846
52364,0,10.602563,2.253516,0.484404,-0.185967,-0.309907,0.471384,10.832054,0.27551,-2.696895,-0.642714,0.177044,-1.206692,10.26617,3.206007,3.752023,0.459597,-0.372507,-0.288965,9.13965,5.548353,-0.70889,-0.403063,0.616726,-0.028038,10.719512,2.799394,0.661477,1.009743,0.266198,-1.244697
52365,0,10.722258,2.263879,0.296218,-0.106202,-0.23243,0.52231,10.980099,0.692823,-2.157699,-0.356491,0.212407,-1.257502,10.006376,3.336503,4.261409,0.424464,-0.446322,-0.392764,9.382575,5.400276,-0.096546,-0.342753,0.675664,0.069123,9.956415,2.615446,0.448305,1.216893,0.108494,-1.230054
52366,0,10.604209,2.514456,0.000934,-0.038796,-0.125771,0.589488,10.924244,1.104055,-1.284874,-0.187001,0.271002,-1.333266,9.433729,2.433418,4.236941,0.469898,-0.504688,-0.453647,9.795841,5.029039,0.549948,-0.259897,0.682416,0.121308,9.907439,2.221136,0.317887,1.489515,-0.031473,-1.270465
52367,0,10.602009,2.778313,-0.266811,0.034332,-0.026436,0.635379,10.938605,1.835583,-0.585701,-0.125773,0.303504,-1.366914,8.749635,1.871388,3.068813,0.537534,-0.590979,-0.463261,10.287056,5.167006,0.826843,-0.239412,0.72476,0.198213,9.37396,1.519666,0.217867,1.787783,-0.075535,-1.311568
52368,0,10.542764,2.793947,-0.623325,0.125428,0.09739,0.683788,11.029299,1.829853,-0.476733,-0.174984,0.316551,-1.40617,8.595404,0.781819,1.91078,0.601509,-0.68654,-0.502631,10.464949,4.504771,0.933275,-0.229799,0.757948,0.257837,9.379573,1.268751,0.295973,2.065347,-0.130357,-1.357251
52369,0,10.343321,2.47053,-0.566165,0.261957,0.208284,0.724645,10.57269,0.770367,-0.413072,-0.237471,0.325479,-1.459389,7.985176,0.68004,1.339708,0.642709,-0.72774,-0.533302,11.308236,3.99463,0.884489,-0.232889,0.792854,0.262759,9.434181,1.708596,0.926776,2.208541,-0.128642,-1.384844
52370,0,9.79518,2.230959,-0.59641,0.375026,0.253489,0.77832,10.671407,-0.216983,-0.324863,-0.227171,0.337037,-1.456871,7.558013,1.767266,2.035363,0.719961,-0.84127,-0.556651,11.150018,2.755781,1.043544,-0.143854,0.860947,0.231859,8.668169,2.249567,0.915303,1.995292,-0.188153,-1.260076
52371,0,9.038507,2.008679,-0.440131,0.382694,0.223963,0.832681,10.383538,-0.950353,-0.049499,-0.108378,0.412456,-1.41773,7.927977,3.169968,3.950109,0.836353,-0.966246,-0.554364,11.205938,2.610229,0.86404,-0.025177,0.971958,0.124971,7.357246,1.567921,0.193318,1.446242,-0.428482,-0.91968
52372,0,8.191865,2.103828,-0.95169,0.298923,0.116159,0.874109,9.992487,-0.886717,0.276645,-0.000687,0.501149,-1.392781,7.098091,4.502203,5.340475,0.891744,-0.971282,-0.461894,10.427175,2.142447,0.712149,0.102998,1.03536,0.00515,6.690601,-0.498698,-0.293578,0.641107,-0.763217,-0.445982
52373,0,7.548986,2.484262,-1.289596,0.22671,0.009155,0.931101,8.853804,-0.5275,0.878019,-0.026894,0.585494,-1.340823,4.801943,4.993455,4.14923,0.80763,-1.217453,-0.250632,10.328102,2.977315,0.311569,0.059052,1.041082,-0.168917,5.830517,-3.491745,-0.526163,0.195124,-0.996106,0.094758
52374,0,6.589406,3.599926,-0.691875,0.122682,-0.224078,0.964061,8.873777,-0.823396,1.127763,-0.203938,0.637907,-1.173845,3.341311,3.64358,1.578059,0.611931,-1.363828,0.020257,10.077487,3.048175,-0.756038,-0.287136,1.031242,-0.319867,4.579801,-6.378072,-1.07597,0.014992,-1.203372,0.639967
52375,0,5.98136,4.361006,-0.89938,-0.15793,-0.307507,0.993818,8.716752,-3.434948,1.606753,-0.396889,0.701421,-0.982379,3.150337,2.079899,-2.248427,0.391858,-1.54214,0.426649,10.350991,1.01623,-1.735963,-0.548411,0.966472,-0.648206,11.371294,1.710944,8.917141,-0.193638,-0.730033,1.04189
52376,0,6.616125,0.570392,3.69972,-0.528954,0.017281,1.015335,8.740919,-6.338856,1.581307,-0.487525,0.74605,-0.592812,23.447395,0.719761,2.105906,0.20703,-1.213109,1.009856,13.87999,-0.938367,-3.880554,-0.742288,0.869664,-1.212083,25.057866,22.079211,18.7828,-0.875026,-0.165369,0.534217
52377,0,12.144602,-4.346732,5.214686,-0.200388,0.574043,0.814829,12.67517,-8.074461,0.426569,-0.321239,0.845498,-0.048981,30.484605,17.444146,26.042348,-0.414623,0.743873,0.203707,16.561651,-4.022601,-5.157013,-0.433066,0.797579,-1.87601,10.650595,-5.125802,-8.567418,-2.998863,-1.761203,1.624423
52378,0,21.146213,-9.884377,6.431139,0.41119,0.832566,0.11181,12.782714,-6.579511,1.467388,0.243078,1.172817,0.700165,18.323872,9.582756,6.140858,-1.218359,0.067292,-0.112612,15.167049,0.103561,-4.901493,-0.202233,0.486069,-2.554065,18.94799,-13.920863,4.571659,-1.197909,-2.453962,2.192656
52379,0,14.642948,-4.181161,2.383311,0.185051,0.031586,0.352021,12.842564,-1.480877,1.629956,0.611258,1.33765,1.417763,6.332179,-24.011491,-9.133302,-0.965322,0.341496,-0.312199,13.8358,5.843684,-4.830169,-0.79888,0.058714,-2.868184,4.311194,-2.391807,-2.318319,1.871109,-1.909909,1.849134
52380,0,6.799023,5.384312,3.884666,0.059739,-0.122109,0.760465,12.470614,3.493416,0.35007,0.345744,1.225956,1.721168,-4.594751,-16.490214,-6.02242,2.549618,-0.352737,-0.869711,13.628179,7.2303,-4.403421,-1.668065,-0.198579,-2.777591,9.881734,3.507603,-9.623478,-0.097625,-1.881995,1.5343
52381,0,5.490816,3.564734,4.243229,0.319978,0.103112,0.535586,13.144528,5.085263,0.915353,-0.317588,0.878489,1.770712,7.348605,-1.365484,-13.838744,4.15107,-0.935865,-0.043497,13.831185,7.778744,-3.196981,-1.831609,-0.140092,-2.569266,10.861361,-7.108809,-6.927299,-0.000458,-1.307763,1.170543
52382,0,13.17081,-3.066886,4.745916,0.501826,0.163308,0.316774,14.863588,3.217478,1.366317,-0.235417,0.619501,2.014723,17.349049,5.762993,-8.14354,2.553283,-0.741984,0.620896,12.087184,0.617096,-1.520706,-1.594634,-0.002632,-2.10222,11.722332,-1.573351,-6.305351,0.288281,-0.829595,0.761387
52383,0,17.88761,-6.117041,3.721028,0.625309,0.304529,0.284273,14.093652,2.85344,-0.025717,0.108153,0.303973,2.245007,12.500322,0.981957,-4.951409,1.138035,-0.994179,0.604724,5.463059,0.310608,-1.916063,-0.406396,-0.276958,-1.772073,11.995934,-3.124207,-2.934298,0.104485,-0.585026,0.491184
52384,0,15.033074,-4.40917,2.404626,0.65495,0.054932,0.486149,12.135698,4.825097,2.33077,0.289666,0.065235,2.180908,11.807265,-1.357213,-3.931265,0.887971,-0.938898,0.801795,4.578071,1.017325,-0.885749,0.177501,-0.607691,-0.999314,10.699826,-2.394248,-2.829002,0.33806,-0.362436,0.259095
52385,0,10.47288,-1.963804,2.137286,0.737465,-0.110208,0.622108,11.683276,5.026672,1.627938,0.36211,-0.008126,2.069197,10.125164,0.801331,-3.284608,0.657822,-0.937408,0.882132,3.752928,3.26371,0.493361,-0.281871,-0.980084,-0.179903,9.752886,0.215741,-3.138263,0.294915,-0.261384,0.089722
52386,0,8.357706,-0.607212,1.892743,0.700271,-0.142709,0.608145,11.72018,3.844895,1.207195,0.373094,0.226145,1.885152,9.099616,2.925282,-1.910136,0.367135,-1.019921,0.901357,2.671218,2.211427,2.520128,-0.827089,-1.169507,0.72695,9.481877,0.749792,-2.34391,0.365411,-0.158272,0.014648
52387,0,7.300001,0.012196,1.359019,0.623022,-0.111581,0.57816,10.60245,2.718264,2.391336,0.447711,0.243655,1.793132,8.90574,3.167586,-0.625597,0.021058,-0.972194,0.84047,3.653502,1.660697,4.001075,-0.807884,-1.410449,1.476828,8.996529,2.019865,-1.425562,0.366326,-0.126343,0.012817
52388,0,6.445772,-0.25331,1.755157,0.516132,-0.021629,0.562252,8.474566,1.925651,1.415301,0.681751,0.18975,1.68887,8.801612,2.630263,-0.215072,-0.033646,-0.843328,0.761272,4.598427,0.856984,4.055539,-0.494537,-1.613053,1.935687,9.406167,2.090836,-1.151487,0.295372,-0.144882,0.087547
52389,0,6.691983,-1.454145,2.077873,0.426753,-0.065461,0.596928,7.892418,1.162401,1.255723,1.166896,0.175904,1.668171,8.909193,1.130092,-0.084621,0.306706,-0.754748,0.709543,5.974764,2.958067,4.198946,-0.337859,-1.76884,2.084839,9.305895,1.433613,-1.39472,0.390931,-0.121193,0.15564
52390,0,7.394285,-2.649574,2.555256,0.340922,-0.183908,0.611118,7.736316,1.389817,1.646349,1.530511,0.158052,1.683069,9.850393,-0.032533,-0.379275,0.867823,-0.739189,0.670294,8.61343,3.431639,5.048268,-0.458147,-1.53742,2.235341,10.138637,1.190437,-1.091475,0.508692,-0.123711,0.199471
52391,0,7.118761,-2.66679,1.815449,0.358545,-0.272829,0.536502,7.572488,2.339081,1.247019,1.385267,0.062831,1.644375,9.387311,0.865065,-0.025015,1.31245,-0.756135,0.648214,8.563116,0.886188,7.647816,0.309469,-1.186487,2.038555,8.998022,0.616617,-0.830052,0.505945,-0.143281,0.228425
52392,0,6.558113,-1.992049,0.929807,0.456049,-0.278322,0.397341,7.401253,3.142384,1.900057,0.969354,0.156676,1.588962,10.101101,1.658607,0.635728,1.339114,-0.658971,0.617313,8.216091,3.90821,6.685437,1.376364,-1.210757,1.669011,9.80396,0.698488,-0.015041,0.632404,-0.178872,0.228883
52393,0,6.519159,-2.057279,1.109609,0.693173,-0.224763,0.233347,6.623014,1.619539,2.051966,0.244452,0.216184,1.455268,9.975083,1.994934,0.40466,1.151301,-0.538227,0.503551,9.043738,7.973439,4.190091,1.770756,-1.059226,1.380256,9.253074,1.255094,-0.039083,0.715147,-0.26642,0.249025
52394,0,7.710446,-2.879183,1.399739,0.892877,-0.163194,0.143739,7.14376,-0.901513,1.739809,0.04715,0.068666,1.217672,9.868081,1.547169,-0.813277,1.056078,-0.381552,0.370108,8.931275,12.66742,1.806095,1.19252,-0.672023,1.196869,9.398952,1.685603,-0.813858,0.678411,-0.355685,0.303957
52395,0,9.769607,-3.873929,1.353773,1.018194,-0.103456,0.177157,9.01854,-0.64492,2.834583,0.354887,-0.021973,1.090867,9.542931,1.30194,-1.847971,0.981457,-0.214579,0.248569,9.307559,26.376457,3.220403,-0.594185,-0.542343,0.726481,9.756126,1.283787,-1.849463,0.687453,-0.381092,0.3558
52396,0,11.591313,-3.929141,1.75831,1.131152,-0.061685,0.300756,10.935747,2.405289,4.319162,0.718246,0.01751,1.137567,9.386931,0.428203,-2.653361,1.028151,-0.162852,0.228885,9.877415,4.400284,4.74228,-2.120372,0.234389,0.751235,9.917215,0.877694,-2.006378,0.601506,-0.382579,0.381778
52397,0,11.994749,-2.560115,1.288098,1.073931,-0.053445,0.483406,11.685456,2.99101,4.291016,0.97701,0.169835,1.23554,9.943439,-0.20599,-3.458438,1.124743,-0.212749,0.283818,8.024516,-2.666002,7.304023,0.061798,0.006065,0.110779,10.481072,-0.211655,-2.604295,0.460055,-0.307504,0.380861
52398,0,11.078888,-1.779738,0.902955,1.055964,-0.00927,0.555391,10.245421,0.481089,2.717797,0.919101,0.224425,1.229702,10.053615,-0.321821,-3.617581,1.156102,-0.21149,0.350081,5.228813,2.010524,5.143989,2.14418,-0.714956,-0.325947,10.187669,-0.731985,-2.405479,0.459711,-0.201531,0.332796
52399,0,9.834273,-2.16553,1.073552,1.008125,0.010529,0.525521,8.838175,-0.229346,2.045087,0.977005,0.249487,1.001153,10.232168,0.525136,-3.281229,1.065805,-0.198215,0.415656,6.200212,6.827111,3.299864,2.496502,-0.813054,-0.341519,10.625014,-0.278045,-2.033736,0.377198,-0.106087,0.297089
52400,0,9.370292,-2.091113,1.261677,0.969442,0.05539,0.464293,8.246343,0.661982,2.149094,1.073705,0.236783,0.65862,10.729111,1.4823,-2.605772,0.910961,-0.119592,0.499426,6.606714,8.230902,1.382541,1.531725,-0.577372,-0.03193,10.590541,-0.584017,-1.706173,0.369874,-0.047264,0.281754
52401,0,9.772007,-1.611797,1.168164,0.968755,0.065919,0.39002,8.270472,1.853636,2.186331,1.201768,0.165256,0.522319,10.577029,1.058748,-1.945548,0.700385,-0.021401,0.531926,5.546599,3.456082,1.938282,0.748909,-0.383037,0.365757,10.710129,-0.907477,-1.782138,0.511438,0.013275,0.234834
52402,0,10.158978,-1.795027,1.002443,0.997938,0.083085,0.327649,8.239271,1.972304,1.410584,1.115589,-0.050813,0.447014,10.337577,0.200219,-1.821951,0.636869,-0.006523,0.547375,4.672726,1.517254,3.284654,0.614556,-0.53376,0.751659,10.376717,0.068389,-1.791963,0.602534,0.062142,0.236436
52403,0,9.830265,-2.127195,0.90114,1.013616,0.097963,0.308537,8.70242,2.685503,0.267083,0.621647,-0.214578,0.357974,9.653664,0.120187,-1.903865,0.746163,-0.027809,0.589606,5.327937,1.798958,4.245802,0.202336,-0.561117,1.303742,9.930245,0.327912,-1.835678,0.599788,0.097962,0.263215
52404,0,9.166841,-2.039538,0.969246,1.013502,0.078851,0.31094,8.171192,2.126199,0.624302,0.287247,-0.163307,0.182877,9.41402,0.733268,-1.774756,0.763558,-0.103112,0.582739,6.285233,-1.492366,4.936078,-0.130927,-0.339104,1.978204,9.956826,0.166104,-1.990572,0.543482,0.12703,0.298692
52405,0,9.123713,-2.048035,1.011228,1.01499,0.068665,0.315403,7.80895,-0.241809,0.659572,0.119019,-0.222817,-0.044403,9.945699,0.805401,-1.370343,0.711829,-0.080911,0.568548,8.25432,-2.638151,5.815372,0.037997,-0.171559,2.487667,9.673735,0.153132,-1.443896,0.606197,0.134583,0.326387
52406,0,9.132396,-2.276053,0.78553,1.045661,0.091897,0.317006,8.229706,-1.991189,1.116723,0.428468,-0.201188,-0.262528,9.696694,0.499878,-0.885774,0.789536,-0.01751,0.544287,9.64201,-1.914564,4.67443,0.438124,-0.091104,2.925635,9.381841,0.337099,-1.082138,0.652661,0.113183,0.391963
52407,0,8.748859,-2.607349,0.829933,1.107347,0.104486,0.302129,8.539624,-2.372077,1.833411,0.884867,-0.112954,-0.442205,9.713094,0.190037,-0.437158,0.925724,0.0943,0.460516,11.617798,-0.848817,4.357117,0.504175,0.076914,3.240455,9.120094,0.248624,-0.817955,0.684934,0.051728,0.473789
52408,0,8.496418,-3.030029,0.983505,1.187002,0.114328,0.303045,8.618632,-2.680847,2.832222,1.417504,0.035821,-0.581261,9.687835,0.06704,-0.084938,1.04097,0.201076,0.349393,13.49774,-0.675701,3.239029,0.401056,0.340508,3.392492,9.420124,-0.020139,-1.002207,0.871592,-0.029412,0.51602
52409,0,8.632112,-3.518505,1.175649,1.273639,0.145114,0.31037,9.172771,-2.355537,4.01263,1.957608,0.186319,-0.626252,10.07044,-0.392364,-0.049819,1.231408,0.31964,0.172122,14.176508,-2.635235,2.842999,0.498229,0.606161,3.327476,9.480669,0.041289,-0.90744,1.11788,-0.12028,0.576335
52410,0,9.032443,-3.654854,1.419583,1.332809,0.220189,0.34127,10.159272,-1.525858,5.083527,2.314952,0.340942,-0.581857,10.048147,-0.654223,-0.848268,1.44062,0.443585,-0.05665,14.941881,-3.408358,2.573994,1.320704,0.603525,3.004461,9.790369,0.382998,-1.601892,1.33556,-0.185628,0.625321
52411,0,9.448169,-3.463597,1.275921,1.335786,0.321472,0.39689,9.493203,-1.034227,6.026251,2.189273,0.505402,-0.451382,9.941371,-0.021251,-1.04685,1.627524,0.665155,-0.274668,14.317789,-1.924681,1.530503,2.596503,0.662489,2.546484,9.719082,0.220757,-2.235908,1.703979,-0.292523,0.683469
52412,0,9.680965,-3.228898,1.664089,1.376991,0.51374,0.487532,9.074482,-0.988214,5.865405,2.067596,0.302025,-0.26895,10.83909,0.205912,0.632627,1.737648,1.06985,-0.602449,13.567498,-0.033852,-1.35404,3.487572,0.71608,1.992686,9.867992,0.517954,-2.342168,2.403096,-0.476339,0.699172
52413,0,8.905141,-2.713928,2.572118,1.475194,0.708986,0.552196,9.457477,-1.609652,5.33611,1.852301,0.235758,-0.09705,10.59937,-0.750212,2.229263,1.977817,1.532261,-0.933915,10.705896,1.756949,-3.536177,3.819551,0.704183,1.542975,9.009204,0.45778,-2.76288,3.060176,-0.765015,0.686271
52414,0,6.783986,-1.306592,2.474717,1.61746,0.718833,0.659665,8.383788,-2.300351,4.393624,1.481705,0.132183,0.14912,8.375848,-2.917313,2.281749,2.344345,1.542028,-1.185506,8.466706,4.592727,-4.703,3.242346,0.522841,1.254109,6.302422,-1.254578,-5.192164,3.845023,-1.097466,0.521834
52415,0,4.570524,0.667482,1.627367,1.660379,0.568681,0.754426,8.070049,-2.419507,3.42778,1.303281,0.207028,0.314033,5.948571,-5.808133,-1.609062,3.035535,1.372578,-1.274602,6.916155,5.860423,-4.048437,1.924097,0.418994,1.164164,3.076222,0.321473,-9.234575,4.53304,-1.387728,0.047162
52416,0,3.423742,1.322959,1.057559,1.460085,0.446678,0.714478,6.491309,-2.057891,1.709706,1.422083,0.401585,0.521751,3.081841,-4.591354,-7.216025,3.642637,1.053393,-1.223369,6.278909,3.361261,-2.871331,0.73736,0.345391,1.173734,3.32678,4.878196,-8.820577,4.45106,-1.433739,-0.495885
52417,0,3.905564,0.036498,1.530431,1.218708,0.450907,0.477916,4.785367,-1.432553,0.092877,1.781239,0.516037,0.683014,1.989128,3.937869,-10.392971,3.7343,0.488521,-1.093334,7.305651,-0.19259,-2.070301,0.318609,0.274777,1.148091,5.257216,4.868364,-4.357004,2.921446,-1.162856,-0.464227
52418,0,5.67216,-2.485186,1.961954,1.06718,0.558138,0.250973,4.474579,-1.165366,-1.280753,1.905305,0.501047,0.557125,3.581934,13.164985,-9.483061,2.670716,0.11571,-0.735119,7.580901,-2.839191,-1.992823,0.724083,0.337494,1.108155,8.912925,-0.668278,1.352539,0.93099,-0.58194,0.176356
52419,0,8.057088,-3.863004,1.819785,0.819064,0.584113,0.172579,6.02421,-0.530587,-0.428586,1.34231,0.393228,0.330055,6.327474,16.748574,-6.495552,0.538332,-0.081826,-0.025635,7.294666,-3.628354,-2.325452,1.487448,0.296185,1.068005,11.851626,0.450916,5.887822,-1.840209,0.120399,1.382073
52420,0,10.379608,-2.961301,1.493961,0.606541,0.517391,0.150033,7.904709,0.331492,3.158682,0.664334,0.209886,0.19066,10.960534,13.81907,1.976947,-1.648012,0.277988,0.698803,6.726132,-2.228012,-3.764315,2.054226,0.029299,1.031748,11.928065,-0.723962,-0.365112,-3.201094,0.241052,1.967448
52421,0,10.208455,-0.557051,1.617344,0.349847,0.352937,0.102539,10.7891,1.326544,5.802979,0.102997,0.037193,0.20874,14.688634,8.18986,6.374721,-3.11535,0.734801,0.594708,7.741691,1.080222,-5.609206,1.770265,-0.392667,1.108762,13.518487,-5.55026,-0.088357,-1.593024,-0.017854,1.997832
52422,0,9.742847,0.714453,1.586854,0.097847,0.134239,0.052528,10.943723,0.053068,5.002184,-0.315172,0.003204,0.556529,15.907201,-4.882709,5.966772,-2.648638,0.964369,0.288761,9.03488,2.236364,-6.806388,0.672476,-0.644093,1.337398,13.430704,-2.228473,3.85145,-0.56983,-0.231983,1.976264
52423,0,9.785807,0.665178,0.87265,-0.135498,-0.085945,0.00412,9.833725,-3.168093,4.063637,-0.37846,0.059052,0.874338,9.766551,-8.763734,3.016031,-0.521286,0.986037,0.069123,9.975226,1.165726,-4.997449,-0.733252,-0.822176,1.493742,9.612508,-4.845776,-2.441165,-0.67844,-0.375729,1.951088
52424,0,10.380587,-1.161427,1.023223,-0.453874,-0.278894,-0.20279,9.389194,-4.006991,3.562956,-0.265049,-0.029641,1.130923,6.185455,-1.457803,-2.194353,0.635153,0.60391,0.236208,11.335379,-2.684151,-2.70796,-1.540131,-0.940537,1.534295,8.143177,-4.663599,-5.514729,-0.094646,-0.265284,1.750209
52425,0,12.193024,-4.141074,1.199629,-0.662848,-0.365642,-0.471959,9.583008,-4.360701,3.161714,-0.147288,-0.10071,1.220877,8.352101,3.393042,-5.112232,0.290339,0.331882,0.743415,12.6357,-6.217253,-1.053952,-1.350476,-0.934232,1.406784,8.795356,-2.770744,-6.217314,-0.291033,0.002289,1.679591
52426,0,13.64527,-5.059169,0.550096,-0.704965,-0.398259,-0.624969,9.973459,-5.227729,4.103705,-0.33486,-0.065919,1.127261,9.640443,0.716928,-4.424869,-0.349623,0.079538,1.155644,12.327713,-7.549302,-0.72515,-0.519348,-0.896786,1.233939,8.623637,-3.887891,-6.429429,-0.507677,0.283137,1.625575
52427,0,13.385918,-3.786504,0.019101,-0.742959,-0.371594,-0.596016,10.360527,-4.315668,4.232868,-0.628405,-0.17258,0.989701,11.713468,-2.150751,-2.687587,-0.43294,-0.181736,1.345857,11.295027,-6.085463,-1.609135,0.247313,-0.960413,1.118346,8.872591,-4.701212,-5.855434,-0.528619,0.477462,1.472214
52428,0,12.548975,-2.846555,-0.007035,-0.795832,-0.332226,-0.530669,10.245376,-3.172197,4.187495,-0.702794,-0.344015,0.941751,12.171832,-2.105687,-1.935576,-0.163884,-0.363132,1.531264,10.215026,-3.605008,-3.323963,0.437064,-1.105306,1.155318,9.105596,-5.166747,-4.99793,-0.496687,0.631159,1.307981
52429,0,11.78993,-2.306784,-0.313279,-0.865643,-0.407759,-0.505378,9.304555,-3.962025,4.457906,-0.542001,-0.419204,0.960404,11.608763,-0.618121,-1.845122,-0.223856,-0.475979,1.804578,9.618051,-1.552771,-4.380873,-0.144544,-1.263932,1.24791,9.810384,-6.966241,-3.962951,-0.273291,0.765971,1.149471
52430,0,11.315606,-1.924166,-0.547539,-0.922637,-0.442665,-0.575075,9.106988,-4.542677,4.265363,-0.409248,-0.427787,1.044634,11.986603,-0.571468,-1.34989,-0.600737,-0.505516,2.142578,9.194581,-1.541471,-4.077129,-1.027393,-1.396142,1.327817,10.214379,-6.823347,-3.206587,-0.045892,0.88087,0.982381
52431,0,10.499297,-2.133473,-0.574887,-0.970821,-0.467844,-0.721907,8.285889,-5.276685,4.751128,-0.46235,-0.430649,1.103231,12.26004,-2.131573,-1.296821,-0.889849,-0.469245,2.417184,8.918995,-2.295312,-2.223003,-1.791716,-1.415976,1.298779,10.340085,-7.089032,-2.500541,-0.025979,1.043723,0.845507
52432,0,9.786859,-2.61065,-0.670953,-0.983412,-0.419778,-0.863132,6.750112,-4.890686,3.662656,-0.571873,-0.535137,1.076339,11.756123,-3.358511,-0.615797,-1.036241,-0.430909,2.553865,8.346582,-3.840366,-0.10745,-2.056682,-1.337129,1.218558,11.099874,-7.548221,-1.687258,0.025864,1.132875,0.763223
52433,0,9.423661,-3.513621,-0.783706,-1.035945,-0.354661,-0.971399,5.147964,-2.98989,2.392514,-0.542002,-0.600025,0.976428,12.747378,-3.862521,1.740685,-0.903705,-0.347816,2.577436,7.403741,-4.855331,1.976166,-1.504636,-1.182009,0.992943,12.889134,-6.305926,-0.729925,0.223393,1.106551,0.664686
52434,0,9.333898,-5.071267,-0.050697,-1.033887,-0.29229,-1.074057,3.977171,-1.869361,0.722891,-0.388762,-0.727283,0.785191,15.843502,-1.672633,5.024817,-0.44326,-0.119599,2.36737,7.542929,-3.310561,2.407503,-0.75499,-1.21437,0.800768,15.861512,-3.593653,-0.055505,0.584804,0.93088,0.682539
52435,0,9.513292,-6.346856,-0.080917,-0.769976,-0.272261,-1.151302,3.636865,-2.271034,0.20637,-0.526322,-0.958115,0.466469,15.853789,0.587456,6.47281,0.370919,0.142371,1.913995,7.648828,-0.948336,2.921345,-0.203708,-0.912223,0.724194,15.630356,-1.668455,1.472142,0.887627,0.808089,0.910516
52436,0,8.926008,-6.190499,-0.116761,-0.387276,-0.304533,-1.204285,4.682324,-3.182257,1.11189,-0.588467,-1.143859,0.145686,13.619814,1.907584,4.710891,1.271725,0.358331,1.462048,7.490523,0.887505,2.965388,0.361064,-0.675665,0.454792,15.067924,0.664355,2.630837,0.921278,0.702346,1.177176
52437,0,7.892044,-4.94339,-0.036328,0.003319,-0.389107,-1.237359,5.960525,-3.643357,2.648973,-0.644086,-1.133331,-0.079652,12.563522,8.097942,4.148033,1.492836,0.921635,0.939832,7.084106,4.029793,0.793484,0.731971,-0.535016,-0.063172,13.969469,3.262366,3.20758,0.970155,0.450916,1.550051
52438,0,6.436183,-3.691907,0.109339,0.264593,-0.506755,-1.219508,6.835243,-4.356501,4.3345,-0.671553,-1.117195,-0.250631,11.331864,11.815301,5.111835,0.778229,1.656026,0.339789,6.171536,7.973944,-0.348127,0.361293,-0.348247,-0.755317,13.936263,6.4877,3.735871,1.002444,0.036738,1.955905
52439,0,5.850528,-2.855552,0.544176,0.353859,-0.583089,-1.190669,5.726754,-4.680143,3.813382,-0.807514,-1.088473,-0.395059,8.58667,11.095093,4.916244,-0.009499,2.042641,-0.193186,12.648876,0.162497,-0.600584,-0.38041,0.136989,-1.349518,13.876445,5.858124,2.211965,0.836397,-0.302948,2.37826
52440,0,7.483888,0.910418,8.312997,0.417373,-0.09041,-1.140309,25.769752,-4.397001,8.268945,-0.496684,-0.73896,-1.005384,8.392521,7.425176,-0.372915,-0.223055,1.822433,-0.465679,42.075651,-49.222407,7.426911,0.040171,2.016562,-0.87701,15.608863,3.819196,-0.560446,0.175567,-0.313023,2.688789
52441,0,15.890994,13.364274,8.918914,-0.927905,0.47574,-0.796067,46.005344,-20.67594,30.419791,-0.694791,1.232336,0.75167,11.557448,3.950944,-2.513466,-0.459496,1.46764,-0.765865,11.56922,13.86342,10.509815,3.124127,-0.056663,-3.536678,16.43696,6.160234,0.573986,-0.750699,-0.087442,2.957014
52442,0,19.296004,12.852912,0.516522,-1.073472,0.118563,-0.392538,14.273316,-0.923392,0.721224,0.755567,1.372656,0.891528,10.18815,4.145891,-0.360199,-1.123648,1.270598,-1.498922,14.289968,6.128621,0.710896,0.761636,-0.492877,-3.964077,14.349751,3.013416,0.226941,-1.207393,0.027126,3.110791
52443,0,9.495883,-2.847496,0.877718,-1.070161,-0.013275,-0.909597,2.446794,29.04203,-14.686082,-0.851935,1.132213,1.302393,10.348922,3.550826,-2.761525,-2.153456,1.155072,-2.01531,3.464011,4.389048,-2.770641,-0.667963,-0.015909,-3.258321,14.051608,2.748365,-3.380882,-0.693135,0.285792,3.073781
52444,0,6.743467,-5.13887,3.883502,-0.995658,0.244337,-0.932256,-15.566869,12.684131,-3.580624,-4.404249,-0.431096,1.639216,12.548499,-1.037138,-3.768077,-2.616156,1.295888,-2.006097,4.880143,6.945046,-12.150273,-0.44487,-0.032504,-2.699895,10.195297,0.023405,-8.874553,-0.946873,0.036625,2.919363
52445,0,9.71097,-1.074934,7.419102,-0.854661,0.542574,-0.761275,-1.134835,-16.355849,-13.04119,-3.751188,-1.65365,0.134151,14.491622,-1.298539,-1.253897,-2.155394,1.4198,-1.755264,11.013089,5.896177,-3.510458,-0.401946,-0.151874,-2.488587,13.53046,-2.013714,-9.823823,-2.185574,-0.130024,2.836267
52446,0,15.215689,2.073019,6.763685,-1.138711,0.488444,-0.494395,27.352163,-11.656561,-5.075955,-0.836147,-1.003468,-1.610264,18.312928,1.451439,0.555943,-2.190778,1.509086,-1.829559,15.044091,4.151134,2.445953,0.191014,0.135163,-2.295254,12.841742,4.237761,-5.747199,-3.185894,0.076689,2.153117
52447,0,15.616036,3.330205,3.806472,-0.85088,0.450446,-0.523689,19.81022,3.717216,-0.260061,0.482143,0,-0.539249,18.879844,-3.7524,1.076931,-2.497386,1.393656,-2.378463,7.900455,2.24874,1.128348,0.896935,-0.13917,-2.257387,10.576952,6.405995,-2.563457,-3.307781,0.244135,0.667508
52448,0,12.566317,0.560549,3.575322,-0.602537,0.310596,-0.609404,8.549685,3.189608,0.030281,-0.087319,-0.331879,-0.093956,15.926551,-6.755321,1.678216,-2.297261,1.354434,-3.02364,10.218414,7.361537,-0.821762,0.426884,-0.174988,-1.93414,11.920602,-3.661637,-4.459218,-2.205754,0.398736,-0.463285
52449,0,9.775117,-0.303517,3.513507,-0.502971,0.260011,-0.45502,7.923838,2.279463,0.368013,-0.397343,-0.417828,-0.708625,16.708291,-7.091179,2.193797,-1.59743,1.506433,-3.319853,8.106873,3.221547,-0.6449,-0.399182,-0.268143,-1.518904,10.085945,-2.983738,-1.61687,-0.130468,1.023259,-1.606818
52450,0,9.891985,0.881152,3.584846,-0.326501,0.292855,-0.258637,12.252893,2.629281,-0.154468,-0.672807,-0.475279,-0.645684,15.604523,-6.672751,3.388895,-0.890952,1.415175,-3.333514,9.905634,3.107927,-0.59469,-0.409823,-0.275924,-1.333268,9.712325,-3.119383,-2.267289,0.829791,1.428156,-2.660023
52451,0,11.002649,1.783614,3.407257,-0.222359,0.339662,-0.229798,10.656631,0.649138,-0.207894,-1.076681,-0.423325,-0.610211,13.409033,-5.164126,2.133404,-0.520895,1.087345,-3.308275,9.96349,3.651759,-1.010587,-0.68483,-0.331772,-1.170528,9.178279,-0.841674,-3.068825,1.017468,1.814021,-3.586834
52452,0,10.342576,2.746702,3.527883,-0.160218,0.27958,-0.381318,10.41244,-0.279157,-0.941771,-1.281889,-0.382243,-0.799278,12.036014,-4.689869,1.429282,-0.340048,0.933272,-3.197322,9.773519,2.916657,-1.79115,-0.930427,-0.347107,-1.020951,8.63962,2.344818,-4.019128,-0.81058,1.747537,-4.483887
52453,0,8.996963,3.477755,3.657601,-0.243989,0.090294,-0.569918,10.835126,-1.228368,-1.269504,-1.472563,-0.297557,-0.868866,10.750862,-4.756214,1.029816,-0.178891,0.832307,-2.990447,10.053724,2.548093,-2.121857,-1.09763,-0.332345,-0.89495,11.942452,-4.819399,-3.533552,-2.182102,1.82731,-5.086839
52454,0,8.153738,3.887269,3.481583,-0.369303,-0.008354,-0.591777,10.721471,-2.282735,-2.037479,-1.412474,-0.192725,-0.818049,9.976368,-4.078306,0.861674,-0.215055,0.755039,-2.760464,10.008772,1.900821,-2.52523,-1.265865,-0.314836,-0.80477,13.029984,-10.226668,-3.67796,-1.658397,2.293591,-5.432695
52455,0,8.066891,3.966887,3.303333,-0.558018,-0.053902,-0.511783,9.521885,-2.754005,-1.902766,-1.307411,-0.148205,-0.896328,9.08561,-2.262601,0.576329,-0.005036,0.505071,-2.678148,9.785414,1.91242,-2.80963,-1.204749,-0.282447,-0.741137,12.098151,-7.980465,-4.769217,-0.829386,2.706725,-5.584045
52456,0,8.001484,3.853598,3.106383,-0.802239,-0.137674,-0.442547,10.092851,-1.352614,-1.272895,-1.341175,-0.145116,-0.93627,6.734521,-0.762095,1.375236,-0.453337,0.263922,-2.591266,9.545763,3.075955,-3.286168,-1.242629,-0.249373,-0.650726,11.065719,-7.260227,-4.039661,-1.313355,2.697009,-5.53931
52457,0,7.874027,4.002697,2.580612,-0.976881,-0.178874,-0.429846,10.477887,-0.113244,-0.667837,-1.674454,-0.113988,-0.862462,5.292683,0.333863,0.790207,-1.269942,0.165839,-2.358595,9.274108,2.85452,-2.874784,-1.461225,-0.299272,-0.562608,11.729506,-11.508233,-3.519626,-1.995727,2.710278,-5.287285
52458,0,7.209923,4.244108,2.904997,-1.164687,-0.302244,-0.436143,9.957468,-0.671237,-0.751044,-2.031436,-0.012589,-0.740587,3.378387,0.766946,0.217723,-2.11198,0.207959,-1.941218,9.506491,2.614204,-3.110437,-1.679254,-0.340474,-0.541211,10.96053,-13.726376,-5.119412,-2.009166,2.935611,-4.857308
52459,0,6.815654,4.31511,2.731169,-1.426892,-0.529992,-0.524155,9.702037,-0.677583,-0.934492,-2.330175,0.120514,-0.635877,2.844511,1.374345,0.654788,-2.259586,0.123148,-1.317091,9.47678,3.112535,-3.855983,-1.958296,-0.393238,-0.541103,8.875599,-14.952311,-6.5317,-1.667152,2.927905,-4.135425
52460,0,7.09621,4.57179,2.360338,-1.665644,-0.695258,-0.640667,9.119281,-0.273314,-1.666956,-2.659491,0.16252,-0.537346,3.343614,1.121183,2.082308,-2.22636,0.033648,-0.708548,9.641885,2.659947,-2.7886,-2.223269,-0.423572,-0.55885,7.914035,-14.377466,-7.073908,-1.218388,2.665138,-3.344042
52461,0,7.448513,4.557365,1.75319,-1.86583,-0.799298,-0.698127,8.851228,-0.757728,-2.795574,-2.913962,0.154854,-0.526024,4.505185,1.281319,3.635492,-2.101247,-0.053447,-0.40972,9.255775,2.154594,-2.226483,-2.162032,-0.34609,-0.585972,7.729531,-12.261604,-6.869445,-1.295541,2.160952,-2.438854
52462,0,7.547938,3.95959,1.297771,-1.974568,-0.869918,-0.745055,9.173503,-0.470313,-2.891018,-3.012299,0.2439,-0.549605,7.514162,1.386273,4.128761,-2.276484,-0.259911,-0.238052,7.910529,4.065804,-2.352455,-2.140283,-0.264946,-0.566973,7.218609,-10.061754,-5.650556,-1.750766,1.625327,-1.530218
52463,0,7.889511,3.415154,1.005842,-2.051371,-0.900365,-0.737963,9.875965,-0.916926,-3.351361,-3.037604,0.304104,-0.643688,9.766736,0.608819,5.151091,-2.410634,-0.273761,-0.159313,8.196432,3.945196,-2.778872,-2.273398,-0.264032,-0.467406,6.63436,-9.886779,-4.818504,-2.361336,0.990795,-0.659691
52464,0,8.712835,2.79515,1.392635,-2.128055,-0.858249,-0.65785,9.61469,-1.164419,-2.765754,-2.842312,0.411914,-0.683052,8.481052,-1.039646,5.470543,-2.357867,-0.318739,-0.175106,8.602032,3.605114,-3.511067,-2.405945,-0.305006,-0.374706,7.270823,-9.96111,-4.254521,-2.379617,0.448982,-0.039828
52465,0,9.464805,2.392281,1.570898,-2.163418,-0.777791,-0.605661,10.372592,-1.277624,-2.75841,-2.6959,0.385472,-0.644132,7.537561,-2.579427,4.606351,-2.235282,-0.484344,-0.195019,8.768544,4.731334,-4.035322,-2.686389,-0.368875,-0.299403,7.734789,-8.488551,-3.654989,-2.04436,0.031129,0.368518
52466,0,9.883235,2.07413,1.556605,-2.16582,-0.715531,-0.608979,10.368248,-0.987102,-3.394535,-2.725889,0.417862,-0.559095,8.944998,-3.129001,2.930913,-2.092551,-0.501278,-0.227178,9.250036,3.34253,-3.695124,-2.795363,-0.358233,-0.193766,8.448502,-8.350892,-2.525307,-1.621573,-0.27524,0.673395
52467,0,9.689891,1.617513,1.516583,-2.128159,-0.618476,-0.594213,9.934092,-2.029187,-3.305648,-2.638203,0.44178,-0.491222,8.771063,-3.154794,2.558688,-1.693328,-0.41143,-0.229806,9.984552,1.899302,-1.855612,-2.413495,-0.17339,-0.191816,8.345179,-9.075634,-0.878516,-1.018433,-0.416117,0.89678
52468,0,9.396793,1.364761,1.248612,-2.000419,-0.538816,-0.539618,9.710911,-2.734731,-3.195804,-2.2892,0.450813,-0.55416,9.266442,-3.047812,2.671198,-1.422422,-0.347222,-0.119136,9.891793,2.008701,-0.213896,-2.006129,0.032045,-0.211726,8.38782,-5.046159,-0.42972,-0.590412,-0.562831,1.004467
52469,0,9.667305,1.374163,1.362698,-1.808131,-0.476553,-0.540643,10.356513,-2.974989,-2.821734,-1.875092,0.487657,-0.705906,8.55374,-2.150189,2.243708,-1.118792,-0.353743,0.018311,10.385083,2.126098,0.52342,-1.630606,0.25647,-0.1854,8.500914,-1.063566,0.281731,-0.967736,-0.611015,0.916008
52470,0,9.896979,1.265054,1.294483,-1.609897,-0.382132,-0.524615,10.14971,-2.888777,-2.014026,-1.393824,0.574399,-0.827779,8.372241,-1.661467,2.198656,-1.022086,-0.372281,0.063172,10.094528,1.878346,0.201885,-1.196846,0.457086,-0.155757,8.598718,-2.069815,0.329983,-1.247785,-0.540291,0.776618
52471,0,9.741165,1.064408,1.424353,-1.485487,-0.343218,-0.473799,9.92298,-2.182836,-1.777102,-1.023584,0.530218,-0.876639,8.328682,-1.52458,2.115636,-1.080226,-0.505837,0.054475,9.823798,2.639776,-0.257247,-0.782213,0.629433,-0.147402,8.348133,-3.492032,0.597434,-0.968531,-0.433052,0.639049
52472,0,9.51625,1.095169,1.172463,-1.318275,-0.338982,-0.379152,9.61704,-1.483599,-1.619346,-0.775354,0.555508,-0.957891,8.502825,-1.27987,2.014775,-1.116276,-0.517625,0.041657,8.941727,4.499844,-2.115837,-0.693405,0.675438,-0.111924,8.763602,-2.273948,0.997986,-0.547489,-0.288736,0.469783
52473,0,9.463947,0.951786,1.191841,-1.158506,-0.326849,-0.281987,9.075882,-1.706151,-2.143009,-0.641797,0.455598,-1.016255,8.697051,-1.337602,2.467152,-1.048639,-0.513161,0.014649,8.795384,3.61933,-2.071517,-0.718698,0.722016,-0.092469,8.63521,-0.7443,1.389075,-0.405122,-0.153695,0.303041
52474,0,9.547605,1.142569,0.895151,-1.037765,-0.320897,-0.173838,8.998846,-1.590173,-1.405202,-0.436027,0.366675,-1.061,8.845674,-0.980743,2.749067,-0.787361,-0.472874,0.034447,9.286484,3.064095,-1.046302,-0.638931,0.778322,-0.108606,8.968434,-0.128957,1.400507,-0.476877,-0.049095,0.132637
52475,0,9.335416,1.275747,0.784286,-0.877999,-0.253489,-0.091554,9.512195,-1.647985,-1.404533,-0.326277,0.357977,-1.107349,8.52455,-0.357002,3.093809,-0.548747,-0.400088,0.082398,9.908299,2.14795,-0.575358,-0.428357,0.878458,-0.129549,9.114292,0.11391,1.754589,-0.561106,0.046692,-0.01648
52476,0,8.925948,1.397241,0.643024,-0.750623,-0.20096,-0.027924,9.378098,-1.769902,-0.436373,-0.107233,0.374228,-1.163999,8.462656,0.349927,3.958377,-0.43934,-0.368501,0.11879,9.906372,2.439499,-0.105497,-0.200388,0.965664,-0.164682,9.00084,0.591673,1.716307,-0.471841,0.128403,-0.198785
52477,0,8.529895,1.533851,0.095787,-0.59006,-0.201302,0.052643,9.316386,-0.727877,0.178142,0.033532,0.405128,-1.190665,8.461296,0.661865,4.505289,-0.380288,-0.329591,0.070496,9.327807,3.325389,0.240046,-0.164225,1.00343,-0.194094,8.949565,1.076229,0.870547,-0.256806,0.152092,-0.36255
52478,0,8.473369,1.252253,0.049174,-0.388871,-0.172577,0.144425,9.30207,0.346752,0.510207,0.029984,0.387962,-1.234384,8.545077,0.443933,5.198991,-0.285187,-0.290909,-0.073013,9.251043,2.984348,0.54573,-0.138475,1.023115,-0.198901,8.942117,1.075003,0.419034,0.052529,0.058479,-0.501138
52479,0,8.428681,0.771931,0.375897,-0.208741,-0.14225,0.262299,9.525169,0.168679,0.758226,-0.063516,0.416574,-1.299161,8.816499,0.190272,4.772956,-0.162506,-0.236092,-0.185852,9.424041,3.597472,0.449825,-0.123026,1.017164,-0.207827,9.148822,1.058133,1.153741,0.531927,0.01339,-0.746162
52480,0,8.489918,0.726103,0.754327,-0.093384,-0.176583,0.346299,10.180312,-0.300836,1.209538,-0.036736,0.439234,-1.342766,8.628699,-0.071409,4.020771,0.066605,-0.190087,-0.234833,9.793999,3.281881,0.253814,-0.229686,1.00366,-0.22671,8.813692,1.751786,2.504399,1.186217,0.084689,-1.117893
52481,0,8.633007,1.08255,0.557522,0.031128,-0.238381,0.429384,10.109574,-0.702862,0.716212,-0.022889,0.461551,-1.309233,7.814289,0.138818,2.538378,0.429498,-0.153809,-0.248566,10.442985,2.293972,0.474237,-0.188487,0.98924,-0.276951,9.285309,4.257065,3.202498,1.651252,0.286692,-1.523986
52482,0,8.748681,1.402249,0.24463,0.219384,-0.240441,0.511324,9.731873,-1.139263,0.076471,0.043031,0.475855,-1.269406,7.487418,1.291321,1.629856,0.717435,-0.187341,-0.306132,10.521929,1.908615,0.570382,-0.093042,1.056877,-0.348478,10.226608,4.954216,3.703536,1.562682,0.524862,-1.767545
52483,0,8.612387,1.359657,-0.238523,0.424807,-0.193521,0.587315,8.873084,-0.680028,-0.722104,0.102541,0.47803,-1.262997,8.310326,2.063932,2.320478,0.878001,-0.226939,-0.418401,9.909992,1.845833,0.544655,0.07187,1.153241,-0.396888,10.719035,4.238771,3.605023,1.354274,0.776421,-1.892069
52484,0,8.377328,0.663029,-0.394971,0.674178,-0.154497,0.643508,8.395315,-0.700055,-1.560105,0.240904,0.417949,-1.383053,8.421397,2.298104,3.475773,0.847674,-0.21332,-0.501829,9.476221,2.899165,0.185085,0.313003,1.282683,-0.437289,9.673077,5.104129,2.299572,0.84371,0.854354,-1.966674
52485,0,8.820165,0.33798,-0.338706,0.89414,-0.135958,0.699473,9.027329,-1.057505,-1.19234,0.638145,0.378698,-1.559655,7.910067,3.006181,4.33855,0.827761,-0.261386,-0.536963,10.054448,3.075703,0.129736,0.449993,1.334072,-0.471966,10.127086,3.750366,1.509775,0.205546,0.819553,-1.918585
52486,0,9.120236,0.86535,-0.315307,1.055395,-0.110094,0.762306,10.755227,-0.433883,0.105153,1.094906,0.442105,-1.595608,7.636327,3.532974,4.600761,0.880864,-0.390592,-0.523918,10.768095,3.268062,0.95718,0.457776,1.370123,-0.478605,9.700324,0.47166,1.372382,0.299278,0.854343,-1.846251
52487,0,9.473698,2.09336,-0.513663,1.124293,-0.129436,0.840931,11.633181,1.031831,0.924705,1.150871,0.563647,-1.525339,7.71363,2.883565,4.97099,0.980202,-0.471046,-0.469673,11.510183,2.565017,1.716733,0.37034,1.368864,-0.497144,8.728575,-0.964423,1.100084,1.081877,0.845542,-1.866876
52488,0,9.801145,3.438646,-0.667594,1.076914,-0.161709,0.905478,11.028928,1.635636,2.040731,1.024975,0.690908,-1.423246,7.410049,2.40864,5.097017,1.005494,-0.404784,-0.477799,12.084196,1.921832,2.008876,0.293549,1.388205,-0.511908,7.830556,0.092955,0.451863,1.648984,0.647668,-1.767096
52489,0,9.528368,4.126476,-0.660463,1.084011,-0.140422,0.954461,11.081057,1.598287,1.686477,0.721916,0.712875,-1.29597,6.83308,2.948628,5.604242,1.065694,-0.427903,-0.547038,12.259383,1.512485,1.494293,0.228888,1.425172,-0.547043,7.62015,0.840366,0.683142,1.627902,0.368636,-1.496516
52490,0,8.678699,3.922687,-0.763722,1.043154,-0.177044,0.9833,11.205536,0.032288,1.393656,0.354204,0.80145,-1.193649,6.492339,4.747596,5.200446,1.127266,-0.470362,-0.536052,11.677407,1.360681,0.652502,0.184026,1.433986,-0.631961,7.332236,0.184264,0.76061,1.311996,0.110554,-1.11847
52491,0,7.818601,3.721098,-0.372698,0.978836,-0.359811,0.965904,9.788967,-1.37992,1.143271,0.175327,0.925733,-1.021751,6.097396,6.436524,6.303551,0.92893,-0.447242,-0.444953,11.454816,1.016192,-0.420747,0.051729,1.427923,-0.788293,5.973963,-0.485324,-0.444813,0.542111,-0.300295,-0.515904
52492,0,7.04759,3.686917,-0.841665,0.72019,-0.518885,0.929621,9.547544,-2.131536,0.817083,0.036279,1.059287,-0.832346,5.054157,6.962789,6.166141,0.693175,-0.44083,-0.319636,11.604028,0.159224,-1.302426,-0.136418,1.444868,-0.98251,4.583978,-6.522318,-6.082164,-0.578621,-0.855,0.376516
52493,0,6.677762,1.578554,-0.956376,0.577363,-0.397345,0.903639,8.540449,-1.552864,-0.355281,0.038453,0.970588,-0.61799,8.120248,4.584863,5.066817,0.817117,-0.484662,-0.025635,12.199334,-0.475719,-1.280006,-0.169265,1.539524,-1.102341,11.885897,-11.480789,-0.895759,-0.335446,-1.646216,1.524902
52494,0,9.888809,-1.272454,1.205481,0.591896,-0.069123,0.869991,10.12771,-1.465456,-1.834266,0.025406,0.879374,-0.475393,17.361252,-0.093061,7.921668,0.732658,-0.337604,0.420002,11.935482,-0.987374,-0.515468,0.202342,1.70823,-1.155796,18.155117,4.228884,-1.376421,0.000801,-2.445546,2.039577
52495,0,19.908228,-8.465687,6.842616,1.045104,1.064903,0.496688,10.47214,-3.417946,-3.352053,0.598878,0.883039,-0.350194,41.556628,12.782567,21.817934,0.853857,0.795148,-0.035248,14.51922,-2.916486,-2.483128,0.753526,1.754375,-1.339959,43.371194,13.791817,15.707179,-2.301774,-2.838756,3.003708
52496,0,26.12346,-14.816126,6.183032,2.169267,1.150785,-0.328583,13.655077,-3.227733,-0.364378,2.027559,1.063564,0.164233,17.653439,1.579479,-5.602831,-0.314945,0.223734,-0.841035,13.238372,-0.402182,-2.021529,1.63552,1.75352,-1.638267,-0.942631,-22.337888,-4.891582,-0.853764,-2.703795,2.653089
52497,0,14.255266,2.183069,1.000417,1.247435,-0.231519,0.611129,11.863751,-1.549295,1.641848,2.78351,1.13412,0.696793,-3.736063,-27.846191,-10.107423,0.137788,0.424007,-0.648198,12.563578,5.441709,-2.156753,1.157435,1.467709,-1.876526,5.747156,-0.62248,-7.769464,0.733407,-2.141048,1.73875
52498,0,9.360929,10.21982,6.423083,1.122807,0.129436,0.889227,12.546181,3.853892,-1.703298,2.669839,0.9986,0.898912,-8.145864,-10.000083,-8.235456,3.466278,-1.216013,-0.44868,12.490171,4.795775,-3.751337,0.730982,1.342823,-1.818242,8.384193,-1.883086,-10.219787,-0.417622,-1.808398,1.463107
52499,0,9.177169,2.555299,4.893802,1.045554,0.594304,0.614332,12.80068,6.02661,-0.589603,1.811947,0.903799,1.2365,9.132609,0.98785,-9.401887,3.695325,-1.679287,0.482118,12.561172,6.161495,-2.42524,0.878505,1.284681,-1.759756,11.868166,-5.237175,-5.833312,-0.164685,-1.286355,0.966368
52500,0,13.167326,-4.011988,5.961972,1.144891,0.683799,0.271116,11.660622,6.609809,1.729107,1.088393,0.717927,1.736507,28.090828,5.18822,-3.508341,2.479845,-1.217089,1.103667,10.199148,8.482139,-1.423775,1.189469,1.233989,-1.782887,12.72047,-2.113848,-2.006324,-0.226025,-0.982607,0.70062
52501,0,13.493377,-5.496836,4.934655,1.165947,0.58057,0.158847,13.025453,6.996,4.593984,1.3235,0.809963,2.116868,16.491089,4.8631,0.037811,0.996687,-0.680709,0.622572,8.441454,7.673021,-0.316133,0.565818,0.798943,-1.533109,11.917878,-4.832151,-1.561897,0.131036,-0.807503,0.443577
52502,0,12.153499,-2.155764,3.785479,1.024834,0.429503,0.28645,15.257222,7.200348,5.358624,1.348243,0.880821,2.377851,8.983403,-0.364114,-0.408254,0.738961,-0.796412,0.828685,6.39367,2.107606,-0.318379,0.052872,0.27878,-0.798575,10.618798,-0.852569,-2.458846,0.25715,-0.670972,0.268137
52503,0,10.792326,0.850362,3.702791,0.757264,0.552527,0.330509,13.425635,5.781911,3.399409,0.582325,0.79486,2.520203,9.744941,0.850465,-0.957742,0.754872,-0.900788,0.911431,4.45221,3.018323,-1.589286,0.135613,-0.399171,-0.265046,9.948196,-1.165396,-3.08805,0.291597,-0.573924,0.185395
52504,0,9.085291,0.899701,3.727438,0.533414,0.587316,0.322383,11.992002,3.175694,0.31276,0.333052,0.584959,2.675178,9.590486,2.072288,-2.643269,0.516253,-0.88167,0.813348,6.552214,3.577523,-1.55484,0.006867,-0.897341,0.407414,9.726859,0.780434,-4.179139,0.482256,-0.437739,0.120049
52505,0,7.582779,-0.691622,3.588711,0.42435,0.59567,0.364383,13.076902,2.318107,-0.478739,1.003984,0.540791,2.826537,10.210928,1.773462,-1.487654,0.436715,-0.921839,0.787826,6.259795,2.931173,-0.068728,-0.128177,-0.95984,1.09866,9.083029,0.074356,-4.470609,0.70828,-0.368502,0.025177
52506,0,7.192683,-2.47396,2.934735,0.434993,0.464061,0.362093,13.231572,3.576184,2.258578,1.723141,0.677468,2.875603,10.970176,-0.769949,0.06225,0.547038,-0.84459,0.778899,3.956833,3.869379,0.954633,-0.028612,-1.241515,1.626971,8.9811,-1.963301,-2.883469,1.289776,-0.352943,-0.176357
52507,0,7.152779,-2.820866,3.144222,0.498049,0.269281,0.296174,11.145115,6.456021,3.290145,1.4806,0.901568,2.867804,10.049328,-1.812503,1.458079,0.921154,-0.63722,0.745255,3.221168,4.83268,0.802399,-0.362583,-1.799066,2.184196,9.065259,-1.598142,-1.87672,1.695733,-0.418411,-0.330517
52508,0,7.274652,-2.144764,2.843172,0.539935,0.178643,0.219728,8.595399,7.101477,1.641631,0.748751,0.877739,2.780176,8.346432,-1.66293,1.203752,1.486412,-0.591795,0.743778,4.794325,4.465027,0.117633,-0.824101,-2.268682,2.728576,8.895519,-0.855023,-2.376713,2.030059,-0.464311,-0.398962
52509,0,7.130595,-1.033669,3.173096,0.504572,0.201875,0.178071,6.052635,5.813269,-0.502144,0.121319,0.554062,2.835663,7.885119,0.050422,-0.736758,1.90222,-0.60199,0.677525,7.82734,3.288881,1.308965,-0.874831,-2.346465,3.069405,8.48021,1.198571,-3.193477,2.159396,-0.467747,-0.352041
52510,0,6.650005,-0.727859,3.136346,0.415193,0.19455,0.161362,6.475879,3.338014,-1.050158,-0.377008,0.097514,2.978407,7.77619,2.356065,-1.829738,2.007402,-0.61275,0.51341,8.434095,4.044223,2.464879,-0.210721,-2.118537,3.122121,7.793923,2.897955,-4.851997,2.182633,-0.499335,-0.370467
52511,0,5.873428,-1.259296,2.393049,0.450441,0.162163,0.098419,7.721437,0.506288,0.2193,-0.591037,-0.283272,2.988605,8.156368,4.14844,-0.867084,1.876005,-0.698466,0.367602,7.793744,6.278831,2.929274,0.156236,-1.828129,3.131581,6.642282,2.988451,-5.724269,2.428619,-0.610588,-0.482977
52512,0,5.037108,-1.026813,2.238812,0.628627,0.089035,-0.011902,8.890371,-0.159028,0.414314,-0.31543,-0.40207,2.868744,6.941607,4.532442,-2.252995,1.910111,-0.678324,0.249035,5.983679,7.532719,4.343938,0.442152,-1.910765,3.032112,6.242626,2.916175,-3.827171,2.713764,-0.693806,-0.547194
52513,0,4.574238,-1.430603,2.283722,0.684933,0.03479,-0.076905,7.476163,-0.359888,-0.483394,0.331562,-0.010987,2.638308,6.194235,3.272911,-2.67878,1.660828,-0.638032,0.166632,8.378636,8.650886,4.991767,0.195149,-2.094558,2.737347,9.219053,1.658053,0.556238,2.322392,-0.547408,-0.360284
52514,0,5.489056,-2.970397,2.892854,0.673374,0.010986,-0.052529,6.751137,-2.06542,0.63919,0.88538,0.337626,2.340375,10.474471,6.848065,-0.485068,1.271352,-0.467044,0.261503,10.197444,8.459885,4.804236,0.3722,-1.831931,2.329914,14.738267,2.022221,8.181235,0.803497,-0.228083,0.324901
52515,0,8.81508,-4.498018,2.857196,0.708165,-0.00309,-0.00824,7.051354,-1.775856,2.179665,1.285034,0.508726,2.061915,13.942489,9.756893,2.55509,0.432703,-0.083771,0.482028,9.96821,8.093348,4.819113,0.905522,-1.483147,1.792274,11.666934,3.975791,1.642421,-1.219517,-0.329943,0.936153
52516,0,11.907932,-3.310817,1.436771,0.899056,-0.075188,-0.038453,8.176297,-0.355329,3.523725,1.647614,0.380087,1.8875,8.940935,5.876008,-1.348968,-0.384524,-0.074959,0.573581,8.347394,9.304241,5.98304,1.518156,-1.283651,1.251606,9.4802,-3.298678,-5.117611,-0.943014,-0.388993,0.908681
52517,0,10.552136,-0.054436,0.751953,1.00446,-0.24216,-0.099336,8.686538,1.08646,1.749951,1.29966,0.115019,1.69702,6.640884,0.767246,-3.726493,-0.61421,-0.308536,0.574499,7.17868,11.182994,4.391098,1.452215,-1.238314,0.883987,8.315712,0.234063,-4.786297,-0.302471,-0.167086,0.917826
52518,0,8.535596,0.37687,1.194888,1.108835,-0.248684,-0.121538,7.829111,1.54072,2.551471,0.971182,0.069812,1.515827,11.458332,3.000031,-1.661176,-0.236322,-0.262414,0.587886,7.219062,10.487214,4.305028,0.650954,-0.9231,0.745713,11.215617,1.430398,-2.010274,-0.703939,-0.234952,1.041432
52519,0,9.529293,-1.415718,1.004917,1.311521,-0.27043,-0.157016,6.278785,1.032724,1.89627,0.764142,-0.093386,1.283145,10.754845,4.418216,-0.573812,-0.260812,-0.095215,0.485689,8.52954,10.941607,7.110894,-0.218813,-0.556073,0.605169,10.4428,-0.388774,-2.440334,-0.781878,-0.285079,1.113306
52520,0,11.296622,-2.283378,0.719835,1.308431,-0.359581,-0.112956,6.094006,1.020475,1.007309,0.74594,-0.263791,1.027471,8.862674,0.937971,-0.264814,-0.387842,-0.12497,0.487063,8.648202,1.8318,9.461006,-0.838179,0.079538,0.848136,9.316637,-1.042924,-3.142418,-0.420005,-0.272259,1.055391
52521,0,11.649311,-0.636101,0.049464,1.134015,-0.495309,0.033875,7.741478,0.756248,2.223464,0.598418,-0.328678,0.712746,9.263826,-2.121392,-1.164297,0.125085,-0.167085,0.613864,5.61056,-7.78041,8.0162,1.189298,0.296752,0.707261,9.587902,-1.514273,-3.088705,-0.097505,-0.233348,0.969555
52522,0,10.82963,0.293664,-0.043326,1.030786,-0.532731,0.097276,7.322621,-1.109489,3.221489,0.327989,-0.425951,0.391619,9.722103,-1.365081,-1.208299,0.84596,-0.261387,0.702678,5.118486,-2.390872,4.396925,3.614256,-0.275273,0.377255,9.34154,-1.880591,-3.090799,-0.003662,-0.198671,0.916338
52523,0,10.215473,-0.248472,-0.363243,0.942663,-0.589608,0.092012,7.390116,-4.051637,1.92484,0.040398,-0.640414,0.092011,10.559877,-0.050175,-0.844928,1.190786,-0.238043,0.767688,8.05777,4.830167,1.267285,3.629837,-0.331473,0.570463,9.706093,-2.399872,-2.525103,0.121423,-0.1886,0.842293
52524,0,10.018992,-0.365868,-0.312116,0.889217,-0.550582,0.051614,8.436652,-5.222146,1.940357,0.292054,-0.473215,-0.253717,9.949367,1.52386,-0.76948,1.123493,-0.188374,0.859815,9.372901,5.734405,-1.809432,1.785141,0.171556,1.107845,9.365462,-2.140487,-2.424636,0.258524,-0.203935,0.782554
52525,0,9.600631,-0.163965,-0.381187,0.792969,-0.475163,0.005951,8.469545,-4.640307,3.636856,1.036964,-0.204623,-0.38178,9.321372,2.432889,-0.499221,0.91383,-0.148776,0.975515,10.190178,1.998931,-0.597288,0.162968,0.461095,1.4658,9.546572,-1.252826,-2.473132,0.305445,-0.191805,0.753943
52526,0,9.313021,0.093503,-0.354819,0.689626,-0.388873,-0.016708,8.674145,-4.486807,3.152899,1.50391,-0.263565,-0.280045,8.630264,3.398026,-1.016748,0.590754,-0.173953,1.007325,10.932289,-2.380274,1.398669,0.15347,0.301103,1.527028,9.274309,-0.754871,-2.325737,0.316203,-0.205652,0.775916
52527,0,9.239342,0.464557,-0.018196,0.597385,-0.301553,-0.040741,8.927591,-2.551461,2.987612,1.848983,-0.299275,-0.135961,9.183792,3.187493,-0.994471,0.163881,-0.160562,0.970012,10.894197,-4.909887,1.068828,0.877679,0.210121,1.518457,9.493459,0.11828,-1.961977,0.166742,-0.216982,0.831306
52528,0,9.212164,0.755531,0.347463,0.514872,-0.264817,-0.052643,8.598516,-0.768598,3.751997,1.640221,-0.37206,-0.051958,9.348658,1.078591,-0.950625,-0.079079,-0.142824,0.92824,10.225981,-3.715877,-0.025398,1.445695,0.235418,1.568611,9.125937,-1.086576,-2.849258,0.057679,-0.233118,0.893335
52529,0,9.126245,0.428208,0.185459,0.436822,-0.23758,-0.035248,8.358435,0.489393,4.152429,1.047951,-0.368963,-0.088807,9.514179,-0.897025,-0.789606,0.169374,-0.089608,0.953074,7.975101,-2.485221,-0.324553,1.717304,0.163433,1.716731,9.050199,-2.141178,-2.917141,0.216524,-0.223277,0.884866
52530,0,9.146367,-0.176178,-0.311736,0.369416,-0.227051,-0.011444,7.440851,0.421515,4.361505,0.561679,-0.378344,-0.205423,9.295698,-1.080005,-0.607139,0.586633,-0.097734,0.956511,6.932642,0.01655,-1.418394,1.623243,-0.185981,2.034577,9.272369,-2.22587,-2.751317,0.400205,-0.22877,0.904208
52531,0,9.263537,-0.86641,-0.767867,0.285302,-0.248566,0.004578,7.241373,-0.096738,2.944057,0.033989,-0.491182,-0.264588,9.584077,-0.744253,-1.05547,0.939351,-0.168804,0.961782,7.210761,-0.801853,-2.306289,1.300739,-0.413856,2.442848,9.145522,-1.144286,-2.960516,0.408902,-0.212863,0.898601
52532,0,9.352106,-1.110697,-0.81986,0.260811,-0.205765,-0.019798,7.266948,-0.784396,2.147976,-0.164338,-0.549892,-0.397913,9.711892,0.317952,-1.7726,1.138604,-0.198446,1.026335,8.569561,-0.148863,-3.539687,0.951215,-0.700449,2.713211,9.36437,-1.927882,-2.866263,0.456281,-0.178072,0.877314
52533,0,9.23934,-0.641862,-0.391819,0.136871,-0.199471,-0.087891,8.997176,-2.20698,1.682464,-0.275117,-0.448954,-0.411532,10.086313,1.108708,-2.105487,1.101869,-0.172925,1.133914,9.661059,-0.932592,-4.205519,0.395666,-0.819487,2.942828,9.421203,-2.276291,-3.284382,0.432591,-0.141794,0.854654
52534,0,9.233727,0.06445,-0.411989,0.039139,-0.193863,-0.199013,8.571753,-4.077708,2.713826,-0.19249,-0.285416,-0.26825,10.081528,0.939259,-1.895456,0.849518,-0.123027,1.24927,10.085692,-1.370483,-3.564456,-0.034565,-0.945616,2.945807,9.708918,-2.988651,-2.658035,0.485578,-0.105401,0.81231
52535,0,9.138957,0.353399,-0.480427,-0.02552,-0.202332,-0.31128,8.475518,-4.675608,3.589857,-0.02243,-0.18116,-0.17807,10.023852,0.007214,-1.105391,0.588813,-0.032044,1.33945,10.07403,-0.077077,-3.409201,-0.266333,-1.131257,2.832949,9.602956,-4.106577,-2.991899,0.677956,-0.102426,0.764475
52536,0,9.202205,0.117699,-0.825917,-0.140419,-0.146942,-0.370217,8.278197,-4.401874,3.417897,0.158158,-0.159874,-0.182533,9.835735,-0.928341,-1.456863,0.602204,-0.017281,1.406403,9.974929,1.618501,-3.599669,-0.88221,-1.219276,2.728235,9.980305,-2.562511,-3.057743,0.831768,-0.107004,0.730487
52537,0,9.570483,-0.569067,-0.696126,-0.287934,-0.078163,-0.374452,7.696209,-3.566389,2.831645,0.085144,-0.140877,-0.205078,10.204224,0.071535,-1.742514,0.74572,-0.02369,1.443373,10.623157,2.649296,-2.786793,-1.487794,-1.300203,2.520288,10.255601,-2.198155,-2.945114,0.817121,-0.093729,0.80293
52538,0,9.895276,-1.218275,-0.2255,-0.431787,-0.051384,-0.355569,6.805184,-3.290914,2.543228,-0.149002,-0.280152,-0.122795,10.423162,0.743965,-1.536678,0.737594,0.014534,1.424145,10.990556,1.88449,-2.57083,-1.941022,-1.202795,2.122317,10.936053,-2.92997,-2.749824,0.809112,-0.065004,0.944727
52539,0,9.984122,-1.53946,-0.101849,-0.542338,0.005035,-0.374453,7.044247,-4.192559,2.948844,-0.471957,-0.579418,0.040283,11.224954,0.935391,-0.126387,0.709553,0.122798,1.346319,10.077816,-0.485487,-0.375342,-1.802236,-0.951762,1.519889,11.475849,-2.893636,-1.571111,0.940727,-0.078165,1.100033
52540,0,9.664873,-1.897205,-0.092712,-0.504916,-0.022087,-0.419085,6.233706,-5.335836,3.475313,-0.968995,-1.032511,0.304535,12.094538,1.499234,2.324679,0.730036,0.3724,1.195708,10.509674,-1.151396,2.221261,-0.821358,-0.689634,0.710463,12.826595,-2.558339,0.646306,1.141017,-0.178649,1.317834
52541,0,9.229354,-2.931791,-0.243656,-0.38727,-0.091896,-0.487063,5.605856,-5.513348,2.954477,-1.339815,-1.297813,0.2559,14.087407,3.608828,5.45972,0.804883,0.859244,0.887168,9.970214,0.022771,4.195484,0.417482,-0.368387,-0.185853,14.822089,-0.663533,2.402349,1.439747,-0.438906,1.605925
52542,0,8.916895,-4.257965,-0.500147,-0.17315,-0.074501,-0.572436,5.817065,-5.292953,1.624835,-1.242427,-1.531746,-0.127264,14.535424,6.200129,7.471748,0.897707,1.495797,0.320561,10.396325,0.99276,4.057132,1.511476,0.04223,-0.909953,16.703289,0.562794,3.594596,1.763236,-0.870058,1.985615
52543,0,9.429201,-4.730887,1.786445,0.065575,0.051727,-0.554812,10.271867,-7.053803,3.046204,-0.497034,-1.469471,-0.705438,14.075389,8.403029,8.967668,0.932183,2.181387,-0.242631,18.412571,-9.804694,-0.091142,2.556903,0.818232,-1.643102,20.098198,0.442829,4.335333,2.193465,-1.421907,2.400405
52544,0,12.217111,0.312642,6.286955,0.194436,0.469439,-0.38933,29.578872,-15.264682,11.279023,0.83591,-1.157387,-1.189089,15.074085,8.020757,12.16461,1.143872,3.01946,-0.930984,26.396827,-22.333269,4.484191,3.798325,1.343144,-1.63858,27.20297,1.742063,5.270588,2.54935,-1.821929,2.804605
52545,0,19.201285,8.419434,3.796465,-0.582737,0.468868,0.114442,29.853144,-21.062309,12.367435,1.912167,0.283025,0.485252,16.549349,2.380243,10.706335,1.025112,3.37076,-1.643201,8.407194,8.547774,0.298945,3.027988,-0.439552,-3.181259,27.509423,6.683469,6.756445,2.199205,-1.763668,3.129457
52546,0,12.037915,2.597491,1.338045,-0.097618,0.479623,0.142022,5.357455,7.8351,-5.086825,1.936115,1.156038,0.425288,16.142749,-0.96002,2.882098,0.366854,3.312671,-2.340652,9.722396,6.188362,-4.824863,2.121288,-0.055513,-3.152802,21.065973,7.074456,-0.77605,1.700804,-1.575124,3.34907
52547,0,6.679408,-1.890752,2.918227,0.354425,0.416566,-0.155182,1.32409,24.396099,-4.705813,1.102442,0.484786,1.052888,16.046756,0.520611,-6.764612,0.808123,2.98765,-2.925266,5.89716,4.672121,-3.524002,0.455058,-0.112963,-2.755529,11.398861,3.976767,-8.945594,0.664424,-1.287872,3.191066
52548,0,6.472579,-0.924671,4.364118,0.474704,0.459941,-0.222246,-3.93841,1.770314,-5.861042,-2.009381,-1.109469,0.914219,18.984733,0.053882,-10.483595,0.84555,2.69381,-3.145945,8.299286,3.902246,-10.465007,0.721385,-0.28773,-2.656409,9.020812,-7.042353,-13.521329,-0.783655,-1.301323,2.517723
52549,0,10.566723,0.677934,5.341062,0.199242,0.447236,-0.11261,11.556626,-6.959235,-10.816179,-1.638301,-1.218168,0.042574,19.844136,-1.179593,-4.152588,0.350714,2.711052,-3.01312,11.891736,10.709944,-2.079134,-0.022889,0.098997,-2.172665,13.467458,-3.225728,-4.989085,0.651412,-0.161938,1.21951
52550,0,15.287593,4.153959,3.920579,0.035134,0.616725,-0.020599,20.639517,-5.821859,-2.942617,0.158272,-0.535471,-0.215951,13.819727,0.983888,-1.021045,-0.096259,2.077513,-2.822286,13.987591,3.499751,2.927665,-0.287719,0.269407,-2.047222,3.722353,3.531028,-5.854605,0.838179,0.787366,0.2496
52551,0,16.333748,5.079547,1.88301,0.13424,0.557101,-0.389559,13.403121,4.763346,2.045427,0.734372,-0.114442,0.221559,12.121865,-1.427937,1.245187,-0.676081,1.469591,-2.716684,8.050881,3.654686,3.907653,0.615836,0.110326,-1.927277,4.88003,6.425046,-0.344676,0.105748,1.377121,-1.210832
52552,0,13.270501,4.053023,1.968443,0.134927,0.310366,-0.674519,10.785998,6.272125,1.799909,0.016937,-0.029182,-0.216866,10.225781,-5.235302,2.644881,-0.664733,1.146458,-2.454406,9.773738,7.245636,2.504907,0.037996,-0.175214,-1.593065,2.649472,4.583261,-2.261382,-0.084923,1.764496,-2.170912
52553,0,10.289132,4.374369,2.509578,0.064202,0.252229,-0.60242,11.133783,5.298799,0.854777,-0.625196,0.036164,-0.556187,8.570686,-5.143054,1.886461,-0.954058,1.058093,-2.252382,9.092875,5.813129,0.133649,-0.815756,-0.29744,-1.231874,3.223658,-1.050916,-2.255085,-0.501339,1.863997,-3.375682
52554,0,9.088593,4.648775,2.577305,-0.108719,0.265046,-0.399629,10.117878,3.388105,-1.730546,-1.265629,-0.093958,-0.494968,7.936365,-3.867549,1.331718,-1.184321,0.81259,-2.055966,9.753855,2.313379,-0.735466,-1.115028,-0.321473,-1.001271,4.225878,-6.848519,-1.256543,0.85432,2.067973,-4.470783
52555,0,9.036753,4.353342,2.861208,-0.231515,0.292054,-0.352021,9.443132,-2.153816,-3.722982,-1.748155,-0.269634,-0.56765,7.305449,-3.344369,1.73213,-1.400384,0.592954,-1.70802,9.774723,1.292711,-2.653548,-0.703022,-0.205081,-0.93248,5.257129,-5.352115,-1.405341,1.475031,2.406599,-5.06667
52556,0,9.078472,4.185031,2.719704,-0.390245,0.168801,-0.502398,9.096912,-6.430512,-4.257723,-1.452414,-0.303735,-0.661946,4.530235,-3.015001,0.157671,-1.310517,0.199822,-1.35332,9.666873,1.601089,-4.00917,-0.596702,-0.06054,-0.854083,6.180492,-5.983065,-1.620162,0.826015,2.554408,-5.167319
52557,0,8.419591,3.983976,2.605864,-0.564427,0.025292,-0.636755,8.612955,-5.704074,-3.26006,-0.809338,-0.287365,-0.688944,3.619448,-2.357634,-0.049684,-1.081265,-0.087321,-0.990168,9.529249,0.912418,-3.313478,-0.625313,0.091211,-0.803385,8.355288,-7.04838,-2.29298,-0.491823,2.652935,-5.014394
52558,0,7.030824,4.010513,2.165829,-0.730828,-0.136873,-0.667885,9.360135,-4.001585,-1.256696,-0.560194,-0.16926,-0.761612,3.310949,-1.774091,0.961048,-0.880523,-0.238728,-0.751546,9.639823,0.946829,-2.083745,-0.607803,0.204737,-0.791483,7.146226,-7.797785,-4.161203,-1.527283,2.690403,-4.495072
52559,0,6.284037,3.913349,1.730259,-0.818493,-0.264019,-0.684824,9.66221,-1.36652,0.914525,-0.738841,0.049554,-0.791484,3.562464,-0.271592,2.394491,-0.871137,-0.445754,-0.569009,9.771902,1.262924,-1.246708,-0.809682,0.194553,-0.788281,6.408096,-8.256979,-6.609186,-2.528429,2.434673,-3.752978
52560,0,6.376155,3.6523,0.984193,-0.848478,-0.339551,-0.676699,9.372555,0.848322,1.550726,-1.275705,0.066835,-0.724887,4.881333,1.401934,4.226785,-0.540053,-0.747766,-0.394025,9.806579,1.657156,-0.836956,-1.02438,0.153125,-0.761619,7.010733,-11.658838,-7.445785,-2.648431,1.971586,-3.009347
52561,0,7.075523,3.442792,0.988545,-0.842755,-0.410963,-0.620737,9.650995,0.436031,0.576705,-1.87875,-0.01133,-0.706362,5.793393,1.998391,4.930213,-0.553443,-0.85683,-0.146944,9.755405,1.95945,-0.276386,-1.144777,0.113986,-0.733353,7.836139,-12.849436,-5.676186,-1.637512,1.585435,-2.382502
52562,0,7.908429,3.451069,1.353299,-0.920806,-0.491188,-0.502175,10.444444,-2.506981,-1.230641,-2.159746,-0.000572,-0.770578,6.701744,1.969736,4.127345,-1.122577,-0.868741,-0.038682,9.665297,1.922491,-0.352271,-1.029873,0.136531,-0.711607,7.708684,-10.972729,-4.15338,-0.581968,1.20548,-1.873513
52563,0,8.459833,3.771125,1.667466,-1.014879,-0.538225,-0.344244,9.035006,-4.862523,-1.867199,-1.821985,0.124174,-0.860636,8.254326,0.382069,3.43846,-1.479883,-0.769983,-0.107578,9.595289,1.473056,-1.384524,-0.850538,0.191005,-0.756695,7.93543,-8.397305,-1.930689,-0.131268,0.800653,-1.419569
52564,0,8.326656,3.500393,1.59237,-1.109983,-0.565806,-0.225109,8.16765,-4.933993,-1.772374,-1.13803,0.143627,-0.954576,8.794518,-1.829287,4.428173,-1.413956,-0.583436,-0.169377,9.274678,1.456078,-1.776294,-0.712061,0.261959,-0.788623,9.152067,-12.387371,0.457102,-0.399403,0.532041,-0.642707
52565,0,7.930928,2.818519,1.265648,-1.15725,-0.599568,-0.166172,8.285165,-3.605458,-1.373099,-0.731519,0.113642,-0.967729,8.41123,-3.485486,5.167989,-1.162284,-0.505266,-0.105745,9.645957,1.205391,-1.513078,-0.558479,0.335202,-0.829021,6.755045,-4.481616,-0.798613,0.293428,0.386012,-0.571751
52566,0,8.192147,1.961943,1.268799,-1.01774,-0.593386,-0.185168,8.939572,-2.897059,-1.676477,-0.562486,0.029412,-0.991531,8.991511,-3.985604,4.728803,-0.78576,-0.552985,-0.130693,9.28754,1.899852,-1.295376,-0.376515,0.427099,-0.85477,8.195411,-1.458007,1.861377,-0.830735,0.088693,-0.463491
52567,0,8.840868,0.912584,1.151553,-0.847331,-0.562026,-0.172121,9.442182,-2.856864,-1.553417,-0.582171,0.078279,-1.064777,8.905269,-2.786851,3.792771,-0.357058,-0.546458,-0.153809,9.406043,1.792573,-0.915924,-0.137331,0.483061,-0.896312,9.365779,-3.077999,2.946842,-1.149808,0.034791,-0.387732
52568,0,9.035671,0.263366,1.457447,-0.658727,-0.502972,-0.097161,8.707066,-2.516767,-0.843726,-0.320096,0.075532,-1.060196,8.578697,-2.119727,3.379443,-0.102539,-0.460168,-0.185853,9.454802,2.287048,-1.199702,0.005722,0.523574,-0.932477,9.131703,-3.030559,4.314337,-0.707367,0.215151,-0.580565
52569,0,8.736041,0.208913,1.488552,-0.457308,-0.440256,0.019226,9.12969,-1.931082,-0.378282,-0.093728,0.10254,-1.089493,8.858916,-1.597386,3.390615,-0.101051,-0.335999,-0.128632,9.610369,2.952753,-0.949719,-0.12623,0.585946,-0.914167,9.338946,-1.690478,3.876698,-0.334056,0.325015,-0.768135
52570,0,8.652718,0.786013,1.511355,-0.26825,-0.412904,0.071182,9.612816,-0.541775,0.081321,0.028496,0.136988,-1.072898,8.665434,-0.825042,3.857051,-0.156098,-0.196152,-0.041428,9.85365,2.974011,-0.517351,-0.275578,0.619592,-0.902151,9.71362,-1.611624,2.878272,-0.191805,0.450903,-0.9287
52571,0,9.222305,1.90718,1.087457,-0.162049,-0.369759,0.08606,9.454258,0.204133,0.005397,0.024376,0.115358,-1.05699,8.696297,-0.30862,3.937596,-0.101509,-0.187225,0.018311,9.350398,3.190279,-0.397899,-0.266308,0.630808,-0.886701,10.191901,-0.922505,3.603164,0.04223,0.681166,-1.152673
52572,0,9.682681,2.952268,0.873043,-0.092354,-0.322953,0.09819,8.847952,0.835877,-0.449875,-0.101739,0.020371,-1.07141,8.910583,-0.118333,3.774586,-0.018768,-0.228996,0.031357,8.863918,3.616051,-0.687172,-0.258297,0.666971,-0.845959,10.204373,0.371325,3.589473,0.013733,0.877902,-1.325265
52573,0,9.534349,3.052991,0.70354,-0.032845,-0.281983,0.151062,8.698396,1.02429,-1.058031,-0.303502,-0.13035,-1.109179,9.392901,-0.24905,4.523234,0.029869,-0.181274,-0.032043,8.70844,3.710803,-0.44188,-0.161936,0.704508,-0.812084,10.175874,0.381204,3.195537,-0.079653,0.885458,-1.408126
52574,0,9.011282,2.544687,0.84722,-0.000687,-0.218811,0.234261,9.675737,0.599053,-1.566888,-0.419319,-0.143969,-1.137677,9.383164,0.422416,4.879162,0.087776,-0.036736,-0.157242,8.796556,3.941601,-0.306044,-0.098878,0.766993,-0.760928,10.831646,0.906535,2.841054,-0.002976,0.87802,-1.447726
52575,0,8.774042,2.300452,0.876784,0.052185,-0.165596,0.297089,10.413228,0.124222,-1.444709,-0.277867,-0.107004,-1.181966,9.409435,1.973813,5.111898,0.14843,0.025635,-0.292054,8.785187,4.512557,-0.050842,-0.077821,0.814945,-0.709543,10.902376,1.588038,3.084464,0.107692,0.86978,-1.443376
52576,0,9.017663,2.078662,0.920305,0.14328,-0.132408,0.328446,10.60355,0.196606,-0.63901,-0.062944,0.028725,-1.232894,9.577226,2.794477,5.057505,0.197525,0.092354,-0.396539,9.385238,4.65266,0.460928,-0.17235,0.815173,-0.621079,10.699489,1.754956,3.001137,0.332233,0.853301,-1.465924
52577,0,9.491614,1.929443,0.941953,0.251885,-0.123596,0.355683,10.667068,0.850793,-0.538947,0.121424,0.08423,-1.295954,9.11382,2.664907,5.44957,0.256806,0.126915,-0.458223,9.633494,4.436613,0.3947,-0.16926,0.823527,-0.574958,9.998726,1.537642,2.703927,0.698231,0.773651,-1.51892
52578,0,9.615872,1.993137,0.723692,0.349275,-0.138016,0.394937,10.668716,0.973552,-0.556684,0.192265,0.111468,-1.333265,8.937965,1.990751,5.404366,0.346758,0.164109,-0.50812,9.54864,4.696968,0.493376,-0.295376,0.830279,-0.507208,10.041863,1.500985,2.34409,1.084838,0.690455,-1.580963
52579,0,9.684243,2.245567,0.267477,0.42618,-0.125313,0.457766,10.861497,1.537931,-0.643023,0.214696,0.166744,-1.304653,8.890041,1.607709,4.764873,0.465663,0.137788,-0.541538,9.731578,4.217809,0.727617,-0.311283,0.798921,-0.460973,9.771349,1.799568,1.905236,1.361121,0.60657,-1.595852
52580,0,9.889093,2.538977,-0.000377,0.506862,-0.107804,0.498279,10.896793,1.903909,-0.768214,0.086519,0.198559,-1.326169,8.657943,1.388602,4.155114,0.558133,0.131837,-0.595097,10.310958,4.958258,0.622974,-0.328907,0.803269,-0.395741,9.325992,1.751234,1.261456,1.448559,0.478847,-1.573536
52581,0,10.256091,2.852629,-0.158382,0.606542,-0.05436,0.550694,11.643749,2.302444,-0.873751,-0.097849,0.222936,-1.376526,8.254889,1.592725,4.017272,0.676696,0.072785,-0.623938,10.567746,5.318479,0.333213,-0.437169,0.819063,-0.314487,9.018466,1.01006,0.223341,1.437566,0.293899,-1.51436
52582,0,10.501097,2.907639,-0.334628,0.705993,-0.030327,0.604941,12.21275,1.109493,-0.798708,-0.279701,0.269401,-1.454468,7.832488,2.285808,3.681693,0.731972,-0.047837,-0.633895,11.543602,4.3717,0.539666,-0.531241,0.851909,-0.246394,8.757612,0.380114,0.322676,1.430121,0.121771,-1.425315
52583,0,10.483052,2.915946,-0.316613,0.738381,-0.020485,0.681618,12.414524,-0.541311,0.203186,-0.253608,0.34894,-1.462136,7.491889,3.536054,3.23612,0.74067,-0.200846,-0.590979,12.536106,3.111875,1.500626,-0.48329,0.923322,-0.256351,8.579279,1.564614,0.224064,1.419126,0.001946,-1.252493
52584,0,10.112989,3.111493,-0.314222,0.726595,-0.032959,0.769625,12.559057,-1.217502,1.127301,-0.088007,0.488447,-1.420478,7.017946,5.042963,3.147751,0.575986,-0.298693,-0.565457,13.141606,2.309366,2.066391,-0.40238,0.995536,-0.304074,8.856075,0.067602,-0.479596,1.06032,-0.124744,-0.950912
52585,0,9.657881,3.277186,-0.476721,0.687227,-0.090181,0.838177,12.441578,-1.04926,1.55194,-0.007668,0.628984,-1.360509,7.218208,6.526533,4.485316,0.345728,-0.370791,-0.5246,13.50277,2.033128,1.774004,-0.380408,1.030099,-0.411078,6.884982,-1.800522,-1.754965,0.769623,-0.407872,-0.40833
52586,0,9.372951,3.216609,-1.447029,0.674753,-0.082628,0.868848,12.308339,-1.409704,0.912961,-0.097849,0.733699,-1.258652,6.875201,6.442095,5.631982,-0.021057,-0.430986,-0.447352,13.820224,1.570072,1.24485,-0.407303,1.113188,-0.527468,6.340956,-3.247661,-2.393408,0.358661,-0.810021,0.237811
52587,0,8.981889,3.570022,-1.386913,0.650606,-0.213779,0.888532,11.855436,-3.164347,1.098615,-0.175785,0.827312,-1.126124,5.520803,3.062354,5.598748,-0.034218,-0.671086,-0.292513,14.510551,-0.630577,0.387397,-0.356492,1.191587,-0.72832,5.010168,-4.31298,-3.312746,-0.091555,-1.192389,0.818959
52588,0,9.286229,5.638375,-0.657025,0.215953,-0.595101,0.909704,11.368184,-5.423902,2.894034,-0.216298,0.999433,-0.831087,2.38664,-0.580058,2.555019,0.365188,-1.211036,0.043259,15.353694,-1.854375,-0.981809,-0.380414,1.232454,-1.057811,4.128594,-4.658957,-3.648743,-0.804217,-1.431041,1.28661
52589,0,10.030688,7.108274,-0.767547,-0.250744,-0.425727,1.029068,11.682072,-7.409907,3.89025,-0.085947,1.305569,-0.313575,0.904849,-4.872125,-4.812624,0.861679,-2.109506,0.43124,16.087973,-2.698966,-2.021349,-0.705447,1.166093,-1.467658,13.200865,6.309998,9.82456,-1.020395,-0.77903,1.310171
52590,0,10.615331,1.72764,3.713353,-0.477112,0.013161,1.095332,13.297936,-7.850344,4.223105,0.059969,1.730409,0.323193,23.576298,-0.695187,6.058498,1.241864,-1.612901,0.639072,20.911276,-5.251049,-3.841229,-1.040337,1.039192,-1.885653,29.842858,18.561079,18.60174,-0.764133,-0.307736,0.723391
52591,0,15.77587,-4.786527,6.553518,0.037995,0.698213,0.822155,16.096452,-7.122851,3.035195,0.10266,2.015202,1.159588,31.052084,27.342331,21.566488,0.92378,-0.365186,-0.417486,21.386867,-5.957506,-3.732548,-0.921553,1.070452,-2.233152,7.108844,-13.056453,-9.732973,-3.006666,-1.609668,1.913333
52592,0,17.925558,-9.571827,5.057457,0.09327,0.342637,0.344583,12.091905,-3.820364,1.434359,-0.130703,1.95448,1.945667,18.007046,5.776067,1.633791,-1.123712,-0.114672,-0.097391,18.435683,-1.148321,-4.874471,-1.083403,1.279459,-2.355536,17.968546,-4.464865,1.013921,-0.745329,-2.235873,2.203711
52593,0,10.005151,-1.941669,1.414128,-0.027466,-0.11982,0.531923,9.515912,0.679527,1.073825,-0.531404,1.443019,2.551837,4.415107,-17.050399,-8.49989,-0.76493,0.373195,-0.243075,13.543132,-0.583084,-5.285972,-0.949949,1.572223,-2.186486,6.126352,-5.270562,-1.680506,-0.164694,-1.838534,1.971755
52594,0,5.891362,2.958884,2.598983,-0.115472,-0.16903,0.736089,11.12925,4.944038,0.368976,-0.63647,0.779764,2.768032,-4.071699,-11.746962,-0.382378,1.585865,-0.438668,-0.633797,7.879112,4.911399,-3.074476,0.050128,1.112668,-2.104821,7.820647,4.670204,-6.569612,-0.360514,-1.824314,1.575845
52595,0,7.956391,1.090101,2.724858,0.146485,-0.031014,0.565798,18.005826,5.049296,-3.797576,0.427598,0.987161,2.882854,7.350824,3.346625,-7.777578,2.643838,-1.127465,-0.003662,6.012314,9.868705,-3.479674,0.073359,0.538347,-1.545,11.613792,-7.595983,-5.981163,-0.757072,-1.584872,1.434717
52596,0,13.307016,-3.753145,2.878947,0.320207,0.161019,0.379144,18.342852,1.142828,1.294115,0.417073,1.61713,2.751947,19.159877,7.352277,-4.027974,1.020493,-0.81026,0.541661,4.643574,1.032392,-2.892186,-0.393564,-0.069123,-0.436708,11.76977,-3.144218,-2.871878,0.126232,-1.163672,1.153601
52597,0,15.920807,-5.92782,1.707065,0.261384,0.127831,0.377656,11.904083,0.652079,2.965226,-0.143292,0.791197,2.583379,12.192426,-0.193899,-1.545656,-0.148202,-0.720985,0.556646,0.734045,2.111071,-3.800276,-0.325473,-0.757033,0.206911,10.59581,-2.011818,-1.552154,-0.573024,-1.129797,1.088139
52598,0,13.264553,-3.92006,1.048631,0.283815,0.085144,0.511439,11.304217,4.069909,1.068929,0.332363,0.432621,2.577645,10.564724,-3.20364,-0.725274,-0.008812,-0.751543,0.720071,1.40177,1.004923,-2.857055,-0.397928,-1.424737,1.243798,10.446606,-5.259496,-2.186018,-0.327307,-0.980549,0.778557
52599,0,10.159909,-2.714539,1.06992,0.340578,0.089837,0.564883,9.698809,5.110073,2.513067,0.720243,0.448649,2.680452,11.297316,-1.54658,-0.835091,0.248684,-0.733806,0.811169,4.316007,0.547993,-2.462417,-0.458151,-2.028548,2.014356,10.057999,-2.984271,-2.126019,0.293544,-0.807505,0.545661
52600,0,9.094953,-2.668488,1.133241,0.358316,0.075302,0.524142,8.741888,3.02197,2.188096,0.756181,0.223409,2.712157,9.858195,-0.317941,-0.472418,0.345044,-0.689173,0.831082,4.920391,0.298962,0.143942,-0.409067,-2.133583,2.65024,10.206911,-1.278224,-1.918605,0.36198,-0.725791,0.414967
52601,0,8.534368,-2.806088,1.186098,0.364496,0.081025,0.525973,8.68739,0.968658,2.079211,0.746332,0.030673,2.585666,10.53285,0.385692,0.174058,0.619022,-0.703596,0.834061,5.116127,-0.134028,1.337523,0.258798,-2.308924,3.225077,10.035115,-1.040884,-1.318875,0.423893,-0.661817,0.349734
52602,0,7.923519,-3.00316,1.411905,0.42,0.049668,0.534785,8.521885,1.165209,1.976514,0.809041,-0.002861,2.355707,9.871941,1.737667,-0.007885,0.830285,-0.623372,0.781189,6.827778,0.672812,1.971894,1.019687,-2.80082,3.474124,10.212005,-0.666671,-1.215228,0.752115,-0.61364,0.326161
52603,0,7.57936,-2.872231,1.348673,0.54932,-0.016823,0.520481,7.65637,1.503906,2.139484,0.975216,0.042575,2.191919,9.338332,1.874609,-0.231444,0.946216,-0.521746,0.738845,9.024071,3.203097,1.323541,1.39108,-3.095244,3.596293,9.90264,1.004679,-1.314303,0.843784,-0.573128,0.319523
52604,0,7.479783,-2.864108,1.279265,0.622906,-0.068436,0.484546,7.413211,0.910652,2.593083,1.077757,0.003891,2.058463,9.17812,1.980104,-0.125718,1.133449,-0.448504,0.728777,11.082966,5.53877,0.909439,0.790893,-2.93394,3.859682,10.1616,0.196243,-1.553629,0.787592,-0.572784,0.358662
52605,0,7.208683,-2.949296,0.734898,0.698667,-0.060425,0.396426,6.813224,0.564867,2.950942,0.984702,-0.116621,1.897531,9.091714,2.726963,0.127095,1.242974,-0.3621,0.717334,10.477964,4.983857,3.104023,0.193799,-2.559564,3.982663,9.124138,1.253875,-1.375226,0.775003,-0.5428,0.396886
52606,0,6.5992,-2.938925,0.107436,0.825699,-0.104714,0.267451,6.375122,0.990252,2.986642,0.7344,-0.152328,1.823469,9.157902,2.625327,1.099061,1.178997,-0.307853,0.681282,11.869278,3.843696,3.944809,-0.058265,-2.525999,3.897801,9.206138,0.03218,-1.213956,0.732202,-0.583198,0.411077
52607,0,6.229283,-3.686135,0.095697,0.91279,-0.1775,0.122224,5.746008,0.104835,2.243903,0.261964,-0.089725,1.661279,8.485317,2.265176,0.76504,1.205892,-0.352944,0.655533,11.694865,4.132185,5.337342,0.06971,-2.318164,3.676188,9.039287,0.11864,-1.315112,0.796062,-0.624284,0.450904
52608,0,6.850018,-3.998958,0.327337,1.047606,-0.203822,0.069581,4.923507,-0.955094,2.17561,0.126689,-0.19135,1.486054,9.106459,2.71516,0.167403,1.131729,-0.252919,0.602086,11.895331,4.410109,5.116656,-0.194814,-2.049899,3.41005,9.617882,0.078588,-1.477041,0.825361,-0.689747,0.506982
52609,0,7.952967,-3.70512,0.578786,1.212294,-0.230717,0.07187,5.792189,-1.028089,3.698198,0.218014,-0.276036,1.181509,9.565794,2.593374,-0.452178,1.113301,-0.129893,0.540171,11.318737,2.121663,4.593178,-0.235669,-1.682076,3.173236,9.98347,0.137149,-1.949829,0.903299,-0.7068,0.555278
52610,0,9.568742,-3.474906,0.654204,1.277645,-0.346534,0.142024,7.009007,-1.485774,4.254342,0.323872,-0.307392,0.902148,10.102568,1.676237,-1.072053,1.198335,-0.088693,0.540172,11.869793,0.003762,5.179655,0.412152,-1.463991,2.856906,9.85122,-0.614475,-2.602822,0.900438,-0.67201,0.591671
52611,0,10.192769,-3.391702,0.131118,1.258992,-0.46876,0.238958,7.430554,-3.198166,3.783627,0.308078,-0.297892,0.766303,9.613984,0.997835,-1.544361,1.430094,-0.060312,0.618914,11.596309,2.003438,5.005394,1.481483,-1.221788,2.366893,9.591272,-0.912106,-2.73357,0.912912,-0.60609,0.615246
52612,0,9.578087,-3.130038,-0.331431,1.294472,-0.542921,0.298126,7.434944,-4.007436,3.759633,0.418628,-0.38853,0.600476,9.857421,1.093827,-1.880771,1.64904,-0.018769,0.693423,10.535468,5.603048,3.516522,1.945578,-1.049987,1.965264,9.457469,-0.872113,-2.865257,0.836462,-0.548639,0.630351
52613,0,8.889313,-3.081566,-0.406987,1.404572,-0.539718,0.305337,7.993293,-3.763685,3.391612,0.838747,-0.331883,0.450903,9.820106,1.332523,-1.798814,1.657739,0.091098,0.688502,11.279916,8.481204,2.990643,1.299668,-0.826198,1.659492,9.561199,-1.25572,-2.874326,0.912453,-0.522775,0.641338
52614,0,9.021166,-3.5107,-0.444385,1.563886,-0.518549,0.272836,9.149032,-3.623676,3.857295,1.2464,-0.049325,0.295835,9.886385,0.452601,-1.374103,1.552901,0.133557,0.67511,12.4714,11.855402,3.93511,-0.778791,-0.469563,1.18541,9.454901,-1.337884,-3.19685,0.968416,-0.469674,0.630123
52615,0,9.90063,-3.531092,-0.401799,1.647206,-0.482958,0.252694,8.333356,-1.462828,4.444734,1.42551,-0.006752,0.149235,10.033692,-0.402462,-1.526722,1.626151,0.123143,0.710017,8.607754,-2.034895,6.317651,-1.542281,0.044062,1.347264,9.62145,-2.092681,-3.306889,1.041546,-0.403297,0.575877
52616,0,10.553086,-3.215886,-0.248156,1.643428,-0.424934,0.255098,7.436091,0.093378,4.108065,1.609202,-0.047609,-0.048524,10.431257,-0.117751,-1.829746,1.646639,0.073817,0.754309,9.910545,-7.315186,4.417013,0.467383,-0.172007,0.976309,9.941129,-1.803621,-3.531353,1.092015,-0.315748,0.529184
52617,0,10.544182,-3.058478,-0.138397,1.662769,-0.346081,0.233925,6.765813,-0.824909,2.88403,1.595927,-0.168004,-0.212867,10.236954,0.981027,-2.012354,1.625581,0.101284,0.80249,11.17623,-5.930011,3.819119,2.137081,0.040743,0.726056,9.801217,-1.463775,-3.479645,1.052874,-0.249371,0.509957
52618,0,9.793856,-2.904036,-0.035453,1.716789,-0.233811,0.216644,7.938132,-1.829279,2.479736,1.526572,-0.292405,-0.296411,9.810281,1.29997,-1.227539,1.432617,0.158849,0.819995,10.416705,-1.7891,2.657866,3.134681,0.279269,0.60947,9.261575,-1.239565,-3.615819,1.116048,-0.241246,0.497827
52619,0,8.854197,-2.548496,0.126837,1.772985,-0.129437,0.215615,8.779262,-1.166869,3.119369,1.592151,-0.229232,-0.253609,9.609674,1.033405,-0.447523,1.296078,0.227515,0.753957,8.950804,1.885962,0.572117,2.659841,0.381923,0.615288,9.179771,-1.207968,-3.283432,1.255329,-0.282904,0.454111
52620,0,8.291478,-2.156511,0.273814,1.789007,-0.016595,0.186889,8.300474,-0.349284,4.576602,1.731438,-0.099796,-0.200736,9.691694,0.573322,-0.11022,1.320111,0.352716,0.634592,8.615462,2.137329,-0.208631,1.599025,0.407996,0.575773,9.031448,-0.685778,-2.892377,1.358906,-0.354661,0.45274
52621,0,7.852555,-1.824191,0.675279,1.760737,0.060885,0.153814,8.018809,-0.439417,4.789336,1.537213,-0.048868,-0.124057,9.345757,0.216537,0.258258,1.439824,0.484786,0.500351,8.260045,1.212312,-0.111572,1.000687,0.337949,0.51545,8.865539,-0.993426,-3.097907,1.515817,-0.455489,0.427565
52622,0,7.496996,-1.635557,0.652869,1.768177,0.086978,0.098423,6.888766,-0.760852,4.302892,1.201307,-0.04818,-0.101625,8.947187,-0.297987,0.073117,1.637595,0.573484,0.395751,7.796053,-0.30568,0.163857,0.863467,0.286678,0.450903,7.829744,-1.244276,-4.199885,1.880579,-0.561244,0.324112
52623,0,7.210103,-1.597738,0.111676,1.750207,0.069125,0.040285,6.345401,-0.546311,3.472809,0.97459,-0.204508,-0.076905,7.793752,-1.077065,-0.915554,1.892023,0.477126,0.340134,7.479989,-1.78827,-0.011664,0.926067,0.239528,0.367131,6.770077,-1.713908,-5.324952,2.296409,-0.623057,0.206923
52624,0,7.260974,-1.506579,0.031332,1.665627,0.096477,-0.00412,6.638966,-0.643485,2.897123,0.981572,-0.28313,-0.037423,6.614335,-0.006249,-2.616553,2.165919,0.362341,0.373786,7.454598,-3.163868,-0.862477,1.048409,0.222934,0.374342,6.386682,-1.365396,-4.410798,2.376417,-0.58037,0.20658
52625,0,6.990728,-0.747332,0.384959,1.502077,0.160222,-0.0412,7.015969,-1.566159,1.975789,1.081711,-0.21046,0.032959,6.091973,1.715724,-3.201463,2.079845,0.227978,0.462366,7.187543,-3.172753,-1.292488,1.119252,0.247311,0.428016,6.42218,-0.943312,-3.37933,2.00751,-0.468774,0.353869
52626,0,7.025914,-0.009318,0.438391,1.260705,0.149234,-0.065233,6.870441,-2.531031,2.181603,1.027807,-0.144083,0.051156,6.5849,3.787137,-3.16968,1.668037,0.039026,0.614685,6.584112,-1.993109,-0.980602,1.140195,0.193294,0.433624,8.993171,-1.329469,-0.186915,1.303972,-0.200734,0.605751
52627,0,7.635936,-0.7535,0.452306,0.991528,0.103112,-0.129091,6.884678,-1.986218,2.671365,1.073013,-0.15507,-0.007782,9.46666,6.717672,-1.991715,0.890366,-0.14683,0.823073,7.111325,-2.049167,-1.621545,1.162741,0.053674,0.508127,12.462348,-0.808388,5.095212,-0.102083,0.264248,1.147174
52628,0,8.468138,-1.986369,-0.02235,0.71938,-0.021858,-0.256121,7.647481,-1.033168,3.656352,1.008236,-0.05642,-0.080567,13.374501,6.360425,2.74897,-0.292286,0.191691,1.083886,7.328158,-1.186667,-2.188058,1.070613,-0.107347,0.542116,10.495202,-3.550237,-0.279928,-1.109662,0.258074,1.423929
52629,0,9.357702,-1.438464,-0.067272,0.461084,-0.089264,-0.388643,8.296278,-0.11276,5.214572,0.596583,-0.119477,-0.05951,10.681961,2.659498,1.211712,-0.880648,0.345621,1.253393,7.590724,-1.225689,-3.527842,0.429386,-0.433392,0.650946,10.601341,-4.596474,-2.585966,-0.236554,0.218816,1.303738
52630,0,10.132573,-0.518969,0.361198,0.268594,-0.079308,-0.493471,9.510408,0.377788,5.182114,0.124855,-0.263787,0.140305,9.406668,-2.617302,-0.453418,-0.815986,0.175786,1.278111,8.891828,-2.553748,-4.299845,-0.400091,-0.588463,0.80968,9.616216,-2.745516,-2.702795,-0.20554,0.197758,1.303394
52631,0,10.668542,-0.121648,0.307812,0.050812,-0.08091,-0.483858,9.977425,-0.837404,5.396653,-0.157929,-0.26722,0.428468,10.193013,-3.698737,-1.445548,-0.122111,0.140994,1.221793,9.908713,-2.861039,-3.140985,-1.299062,-0.633566,0.901367,9.476035,-4.014145,-3.876136,-0.17487,0.283476,1.326628
52632,0,10.761805,-0.616654,-0.245717,-0.232545,-0.112496,-0.509951,9.446953,-2.748485,5.780539,-0.380519,-0.223162,0.691686,10.276675,-0.776689,-2.832048,0.269399,0.083429,1.271235,10.1484,-4.085301,-1.287095,-1.444641,-0.65806,0.822861,9.570631,-3.54458,-4.349841,-0.053102,0.407533,1.276386
52633,0,10.509993,-1.456271,-0.586618,-0.48157,-0.093728,-0.549892,8.65392,-3.834253,5.58712,-0.546919,-0.286105,0.762185,10.128493,0.133994,-2.706122,0.205541,0.006523,1.438329,10.336132,-4.687591,-0.280513,-0.908679,-0.805108,0.486612,9.851259,-3.912132,-4.308397,-0.063516,0.537884,1.287261
52634,0,10.443341,-1.834118,-0.745519,-0.707709,-0.043488,-0.57736,8.117635,-5.196672,5.216976,-0.638703,-0.420118,0.750857,10.921405,0.130932,-2.108235,0.007439,-0.064661,1.60119,10.49883,-4.851637,-0.190803,-0.202448,-0.77191,0.108949,9.978667,-4.408319,-3.692347,0.011788,0.628638,1.230038
52635,0,10.395732,-1.902235,-0.876824,-0.875714,-0.02369,-0.627602,8.129966,-6.22569,4.996193,-0.474592,-0.487524,0.679786,11.274342,-0.442013,-0.906993,-0.338643,-0.016022,1.729951,10.594688,-1.713474,1.337244,0.104943,-0.674748,-0.23987,10.603521,-4.892087,-2.943346,0.036164,0.656561,1.183802
52636,0,10.296567,-2.102896,-1.668581,-0.987298,0.011215,-0.692036,7.62282,-5.893611,5.411258,-0.210458,-0.409243,0.587429,11.885735,-1.141925,0.899386,-0.546021,0.034563,1.8285,9.590051,0.241337,3.190629,0.140993,-0.561567,-0.68196,11.542756,-5.92949,-2.587926,0.209202,0.602543,1.131728
52637,0,9.91922,-3.079344,-2.229076,-1.078971,0.000572,-0.785539,6.225206,-3.46699,4.333695,-0.111695,-0.405008,0.396425,12.96014,-0.477358,2.424266,-0.518552,0.114903,1.779398,8.526056,0.555879,3.543009,0.51591,-0.306593,-1.165947,12.746514,-4.744552,-1.952539,0.628981,0.487185,1.091332
52638,0,9.943451,-4.978175,-2.307873,-1.02999,-0.181507,-0.849627,4.172082,-0.25636,0.817662,-0.205422,-0.610545,0.069695,12.841079,-0.304865,3.081432,-0.170293,0.261162,1.565941,6.081088,2.640466,3.541855,1.313043,-0.062602,-1.542966,13.688935,-2.367581,-1.004599,0.993833,0.356379,1.146272
52639,0,10.484215,-6.680374,-1.946504,-0.699016,-0.033761,-0.915084,1.122969,3.021649,-3.518555,-0.893577,-1.109075,-0.359353,12.325128,2.187772,1.823863,0.326965,0.454111,1.246517,3.233454,5.77829,1.329478,1.856476,0.03525,-1.604574,13.924282,-0.533552,-1.070699,1.146853,0.205543,1.289108
52640,0,10.04169,-6.177935,-1.024574,-0.455481,0.193293,-0.941403,1.266737,4.398505,-3.320359,-1.170565,-1.647695,-0.754664,12.396794,6.149261,3.092328,0.545206,0.748342,0.824561,7.703273,-0.30828,-5.131213,1.95501,0.193532,-1.378304,14.0345,1.872606,-0.368309,1.283973,-0.039827,1.560247
52641,0,11.411279,-0.237107,8.40526,-0.174754,0.818038,-0.905015,23.390375,-12.391656,16.555155,-0.123142,-0.980899,-1.153137,11.784461,9.148395,2.519668,0.353056,1.059282,0.330511,50.88117,-39.525204,-4.24455,1.139892,1.690725,-0.640445,16.455938,5.776572,-0.993343,1.304822,-0.390497,1.873285
52642,0,17.357219,12.774894,8.876972,-1.183942,1.402076,-0.594432,47.629945,-36.157442,18.255948,0.134583,-0.657352,0.236207,13.657534,9.411009,2.079153,-0.314149,1.346433,-0.60827,10.057275,17.686594,13.760741,3.661982,0.207774,-3.639087,16.729155,8.155874,0.543488,0.91251,-0.852767,2.311662
52643,0,20.263578,9.83334,0.064133,-1.150842,0.624975,-0.259557,15.072902,17.145945,-2.539261,1.193996,0.686207,0.740683,10.897327,6.93207,3.526887,-1.095047,1.519537,-1.574816,8.178489,9.621907,-7.341128,1.644205,-0.521476,-3.278566,18.264139,0.623455,-1.61303,1.266308,-1.104586,2.513388
52644,0,10.241475,-3.945026,-0.714983,-0.696151,0.264132,-0.590292,-1.75221,31.876538,-1.376045,-1.446606,0.05688,1.497878,10.22567,2.432316,0.767726,-1.086248,1.201271,-2.118705,3.714876,1.930828,5.466167,-0.894416,0.428496,-2.193407,17.879983,3.516174,-5.275483,2.0125,-0.614635,2.797676
52645,0,7.739328,-4.437982,3.20197,-0.561111,0.739755,-0.465551,-9.704968,-4.135519,-1.941064,-4.203221,-1.279624,0.473893,12.599952,-2.144141,-3.269388,-1.0589,0.939986,-2.363184,9.01647,6.54703,-6.14151,-0.546033,-0.53104,-2.225332,11.090989,4.466574,-5.548471,0.122234,-0.629367,2.698299
52646,0,10.147388,1.292823,6.109435,-0.841156,0.906618,-0.265165,10.107843,-12.614273,-7.388822,-1.462764,-1.359303,-1.264311,15.812939,-1.554486,-1.546603,-1.068396,1.066335,-2.228352,11.574272,8.576067,1.3785,-0.633451,0.127148,-1.556333,12.048473,-1.083456,-7.357414,-1.61917,-0.832647,2.441745
52647,0,14.996149,5.633802,5.589229,-1.429066,0.696737,-0.182653,26.840541,-0.467351,-3.376474,0.339791,-0.664247,-1.897522,16.756872,1.153701,0.478398,-1.085892,0.923489,-2.017507,12.416478,-1.36401,3.054365,0.177161,-0.267686,-1.676387,8.900346,12.977428,-8.273267,-4.07056,-0.928468,2.160739
52648,0,13.488988,3.569567,2.22761,-1.536646,0.417493,-0.395863,12.584441,4.642521,-0.96209,-0.358203,-0.709653,-0.132981,13.652805,2.090026,-0.600712,-1.22884,0.098884,-2.165263,9.061469,4.928457,-1.988175,1.096392,-0.181626,-1.593431,6.334109,3.412456,-9.393397,-6.251593,-1.387602,1.448286
52649,0,11.515764,1.985315,1.648011,-1.282115,0.431225,-0.640886,7.510035,-0.001806,-1.197072,-0.747084,-0.867363,-0.498971,12.27791,-0.310252,-0.535326,-1.845796,-0.076455,-2.509285,9.371077,6.704395,-1.147182,-0.210575,-0.113871,-1.176014,10.435295,-6.489175,-7.500247,-4.458682,-1.148811,0.030678
52650,0,10.692063,2.684431,2.004905,-1.00607,0.578052,-0.578052,11.035656,-1.98647,-0.811834,-0.655193,-0.789779,-1.1663,14.578508,-4.21735,0.447072,-2.372838,0.200646,-2.749635,10.103881,2.537908,0.085779,-0.682994,-0.061799,-0.952278,7.447407,-5.10544,-5.708084,-1.67722,-0.650631,-1.147102
52651,0,10.911439,2.245409,1.134918,-0.88796,0.539711,-0.416571,12.714506,-1.258444,-0.371827,-0.424699,-0.630812,-1.108269,15.415239,-6.165804,3.114713,-2.205265,0.472483,-2.814297,9.685002,1.953385,1.106986,-0.3455,-0.100709,-0.82856,6.854693,-2.604872,-3.881104,-0.07359,-0.344259,-2.255538
52652,0,10.432982,1.092628,1.345109,-0.811967,0.437856,-0.295719,10.310321,-1.675662,0.276698,-0.456171,-0.534565,-1.139054,12.75089,-6.803249,3.473532,-1.547298,0.421876,-2.646282,10.00767,1.39775,-0.074274,-0.157243,-0.270197,-0.780379,6.336023,-2.139978,-2.013081,0.922056,-0.196521,-3.220444
52653,0,9.048298,0.299758,1.382174,-0.687452,0.33829,-0.242159,8.425865,-2.065825,0.138487,-0.547844,-0.550248,-1.364175,10.386449,-5.720799,2.512382,-0.790161,0.237254,-2.445562,9.822117,2.104841,-1.886099,-0.54234,-0.204622,-0.645452,6.971484,0.017457,-1.687907,0.752365,-0.134609,-4.012616
52654,0,7.817769,-0.077427,1.68257,-0.61787,0.213662,-0.211145,8.838661,-2.106529,-0.806833,-0.642835,-0.613537,-1.41053,8.799915,-4.766452,1.49429,-0.245033,0.039713,-2.258626,9.391651,0.471585,-2.401143,-0.831309,-0.121538,-0.549895,8.097509,-0.499653,-0.800773,-0.513503,-0.031364,-4.488174
52655,0,7.150819,0.142889,1.770023,-0.562022,0.070954,-0.201417,8.153003,-2.931451,-1.122836,-0.712648,-0.634482,-1.446126,7.747419,-3.844552,1.269414,-0.09007,-0.146034,-2.136954,10.008724,0.602838,-2.154515,-0.719955,-0.054932,-0.530553,10.339499,-4.995927,0.627739,-1.516892,0.239937,-4.739673
52656,0,7.325452,1.045111,1.177781,-0.406037,-0.020943,-0.165139,8.952996,-4.238768,-1.380287,-0.664355,-0.752135,-1.539062,7.026577,-1.747997,1.050155,0.082516,-0.384542,-2.089114,9.876074,0.403737,-1.965035,-0.505375,0.111581,-0.563625,11.961917,-7.21399,1.324149,-1.489187,0.801773,-4.67247
52657,0,7.539348,1.391244,1.024132,-0.246735,-0.00721,-0.08606,9.202151,-4.390989,-1.050552,-0.575317,-0.719633,-1.613681,6.911675,0.127193,0.373497,0.235303,-0.634837,-2.004193,9.537031,0.17462,-2.425407,-0.35145,0.257723,-0.586857,12.712666,-7.567428,-0.478069,-1.420385,1.262984,-4.564738
52658,0,7.239065,1.124731,0.793295,-0.145111,-0.046463,0.033302,9.565181,-2.887133,-0.162954,-0.417838,-0.662292,-1.509412,7.503824,0.492709,0.412667,0.350434,-0.643873,-1.824155,9.616156,1.442085,-1.717312,-0.466808,0.327189,-0.612607,12.616454,-10.127487,-1.360874,-1.07318,1.594946,-4.492475
52659,0,6.864385,0.82044,0.773622,-0.092354,-0.123138,0.115356,8.574832,-1.941925,0.445484,-0.428938,-0.584926,-1.499224,7.754938,0.983094,1.596955,0.319644,-0.524615,-1.601312,9.415907,1.123917,-0.91949,-0.605628,0.346187,-0.634925,11.960147,-11.344253,-0.639564,-0.438644,1.803685,-4.195052
52660,0,7.231086,0.631868,0.904808,-0.125656,-0.2631,0.122109,8.560751,-0.483474,0.663762,-0.53091,-0.615714,-1.543176,7.888493,2.443185,2.300241,-0.132869,-0.188145,-1.313923,9.912094,1.479604,-0.721763,-0.653694,0.327648,-0.668228,10.379023,-10.872316,-0.346829,0.097639,1.86372,-3.837784
52661,0,7.967757,0.9959,0.462184,-0.169831,-0.451242,0.102997,8.15639,-0.132967,0.248108,-0.740237,-0.69526,-1.67961,7.26391,2.958828,3.106225,-0.82628,0.102198,-1.011678,9.594762,1.487331,-0.272309,-0.639846,0.3447,-0.673378,10.090675,-8.016555,0.553063,0.143419,1.783758,-3.439777
52662,0,8.47451,1.609774,0.237275,-0.143052,-0.548632,0.109978,10.73071,-0.546099,-1.01305,-1.048226,-0.702823,-1.871219,6.531891,2.827475,3.884831,-1.36326,0.165715,-0.813241,10.186276,0.508511,-1.010444,-0.595557,0.317233,-0.652892,11.029979,-6.901217,0.596428,-0.498915,1.670491,-2.940156
52663,0,8.445344,1.678828,0.348947,-0.142365,-0.534098,0.179444,9.213685,-1.728794,-1.157427,-1.128338,-0.638159,-1.818342,6.309691,2.219418,3.9252,-1.353185,0.207487,-0.629899,10.555865,0.854835,-1.296464,-0.498853,0.25223,-0.704963,10.892555,-7.269436,-0.242076,-1.118782,1.659574,-2.328898
52664,0,8.128768,1.557118,0.106836,-0.102425,-0.619586,0.216638,9.843553,-1.800246,-1.272736,-1.040325,-0.702133,-1.772901,6.963946,2.380832,4.123213,-1.217103,0.118792,-0.466013,10.994942,2.65484,-2.31141,-0.714693,0.330967,-0.694665,9.670251,-9.058779,-0.709218,-1.232394,1.526187,-1.666273
52665,0,8.113679,1.214554,-0.082906,-0.052529,-0.692601,0.23575,10.388736,-1.661603,-1.76694,-1.152595,-0.713691,-1.641627,7.815492,1.879428,4.143784,-1.249261,0.176357,-0.276952,10.826637,1.895807,-1.680273,-0.859237,0.388305,-0.743878,8.436775,-10.338599,-2.30102,-0.833967,1.388458,-1.076707
52666,0,8.000481,0.848345,0.075772,0.082398,-0.777289,0.23987,10.900892,-2.942415,-1.745073,-1.031273,-0.60828,-1.550286,7.656108,-0.029689,4.152897,-1.109864,0.21355,-0.067178,11.107372,1.399641,-1.581171,-0.863359,0.481119,-0.82399,7.467958,-9.335885,-3.736137,-0.487643,1.143404,-0.56741
52667,0,8.039617,0.382125,0.191614,0.222246,-0.858201,0.205309,10.70834,-4.099148,-1.372522,-0.803747,-0.375379,-1.490988,7.02919,-2.10739,4.501919,-0.480081,-0.086975,0.095673,11.50265,1.1305,-1.769719,-0.937408,0.55345,-0.948967,6.143135,-6.572653,-4.732308,-0.449414,0.82673,-0.170748
52668,0,8.531909,-0.006222,0.173895,0.367473,-0.833825,0.143396,10.546015,-4.056473,-1.153351,-0.533193,-0.136417,-1.343111,6.396727,-4.608207,3.712818,0.487179,-0.597615,0.171205,12.129657,-0.097678,-2.058994,-0.969801,0.584925,-1.129909,4.862895,-5.92881,-4.828481,-0.46635,0.540164,0.064202
52669,0,8.879579,0.550161,0.283366,0.510412,-0.790909,0.106202,11.360443,-5.244897,0.636526,-0.385786,0.096132,-1.100024,5.020849,-5.948193,-0.267968,0.940841,-1.037775,0.3209,13.348974,-1.804616,-2.962955,-1.092616,0.683472,-1.476353,4.038491,-6.559158,-4.800715,-0.156098,0.372277,0.086518
52670,0,8.996229,2.439782,0.627053,0.538907,-0.720641,0.098763,12.542295,-7.639176,1.607835,-0.339321,0.466122,-0.694663,4.242897,-5.812207,-2.874751,1.497994,-1.407352,0.460877,16.078055,-4.346962,-3.128069,-1.184547,0.791758,-2.017278,3.687309,-4.719474,-4.645449,0.169258,0.337258,-0.024262
52671,0,9.044367,4.553032,1.747052,0.43854,-0.602764,0.121766,13.266185,-9.862035,2.712598,-0.221904,0.983288,-0.11078,6.417519,-3.184412,-2.703026,1.89529,-1.676805,0.613909,17.916362,-7.341218,-2.702849,-1.127021,0.950878,-2.67546,7.382388,-4.225731,-4.35873,-0.137673,0.363465,0.075989
52672,0,9.681698,4.618155,4.277236,0.074959,-0.526659,0.094414,12.816039,-11.83517,4.233018,-0.035592,1.595588,0.57806,15.076605,11.623503,7.532206,1.504854,-1.144463,0.675233,21.838966,-8.185926,-3.412928,-0.845389,1.057709,-3.35958,18.924987,-17.858505,-8.967349,-1.580662,-0.54272,1.924583
52673,0,11.985815,0.995369,3.868266,-0.172005,-0.33371,-0.011902,12.129928,-12.034144,6.085985,0.355253,2.223653,1.390341,22.469451,16.188171,2.067056,-0.127261,-1.046357,0.901815,25.396398,-10.031246,-6.109319,-0.44687,1.234044,-4.031448,14.299185,-4.69538,3.465101,-1.836701,-1.110696,2.82115
52674,0,13.83489,-3.160538,1.817711,-0.102654,-0.331078,-0.195237,11.098347,-6.771088,8.665212,0.477957,2.069543,2.186514,14.109756,-9.201686,1.454201,-1.759036,0.23553,0.843811,24.469787,-6.35449,-8.665664,-0.578419,1.543405,-4.424741,10.082478,-6.421519,6.891983,-1.048228,-1.022592,1.767877
52675,0,11.541754,-2.253047,0.622871,-0.244447,-0.443918,-0.195466,11.650608,0.037118,5.441739,0.493986,1.472916,2.81421,4.258998,-13.240643,5.000633,-0.916458,0.308195,0.714581,15.497391,-0.36922,-8.890726,-1.569523,1.602148,-4.278957,6.521506,-2.789455,-5.714264,-0.168921,-1.090321,1.462154
52676,0,7.829013,0.537695,1.253475,-0.286103,-0.27134,-0.064545,12.570184,7.503073,-3.420833,0.698298,1.03995,3.169181,7.488669,-3.771501,-0.319312,1.325614,-0.451828,0.976901,6.951214,-0.611035,-1.899478,-1.697971,1.106074,-3.735446,10.201463,-11.588213,-6.179537,0.993627,-1.281461,1.343148
52677,0,7.712422,0.234638,1.65364,0.147972,-0.021057,-0.14328,18.837852,10.383609,-3.378169,-0.485739,1.313579,2.697432,12.027999,-0.98073,-3.125644,1.558287,0.048639,0.937994,3.77984,3.286813,-1.030349,-0.294375,0.285333,-3.074683,10.258562,1.189865,-3.190414,1.542301,-1.184193,1.247941
52678,0,10.638004,-2.29609,2.475291,0.510409,0.193406,-0.230599,15.653176,7.155197,-1.688842,-2.20859,0.997162,2.708773,10.454266,1.197131,-4.368435,1.74232,0.052416,0.693655,3.47249,-6.036334,-5.155893,1.2468,-0.384089,-1.976981,9.529149,0.914297,-5.958997,0.338187,-1.195613,1.415006
52679,0,13.223074,-2.921872,1.373076,0.481683,0.19043,-0.054932,13.032607,-1.706906,-2.91874,-2.159948,0.151543,2.942044,9.508679,1.914988,-5.13691,1.78307,-0.118452,0.848275,-1.762177,-1.596562,-6.852389,3.100869,-1.141251,-1.107944,9.952268,-4.212642,-7.042116,0.138364,-0.976442,1.365096
52680,0,14.12359,-1.155891,0.84159,0.438081,0.153695,0.240327,12.943279,-2.747274,-2.10935,-0.614384,-0.008584,2.96525,11.340583,3.927318,-4.822559,1.507936,-0.213899,1.111954,0.571964,5.574982,-7.269055,2.464771,-1.917565,0.509779,9.806907,-2.498793,-5.843257,0.685521,-0.651074,1.290817
52681,0,13.138184,-0.557612,-0.164407,0.450899,0.119133,0.37079,12.207044,2.153237,-0.101164,0.01465,0.196974,3.034382,10.791116,4.802984,-3.485505,0.666977,-0.259444,1.23416,0.372301,6.011431,-7.469401,0.447865,-2.643012,1.999771,9.324888,-0.429297,-4.309858,0.295379,-0.476085,1.286803
52682,0,11.254331,-0.604388,-0.581179,0.384179,0.140648,0.322953,9.489703,1.719667,1.305206,-0.141692,0.117886,2.94303,10.383775,1.555238,-1.549632,0.023232,-0.270888,1.378129,2.061841,0.191959,-4.612783,-0.985456,-2.944464,3.304123,9.607628,-4.051964,-3.840281,0.042573,-0.370567,1.279819
52683,0,10.367639,-0.13369,-0.998472,0.234375,0.054588,0.253144,7.168236,-0.253586,0.501328,-0.14043,-0.248585,2.579242,10.633089,-0.683563,-0.605863,-0.01957,-0.306252,1.51524,4.758633,-3.796362,-2.580307,-1.117767,-3.163154,4.13084,9.478645,-4.23689,-3.651703,0.445984,-0.249028,1.120625
52684,0,9.889837,0.171769,-0.767567,-0.005493,0.052528,0.172005,7.304651,-1.189095,-1.154273,0.408349,-0.438678,2.163975,10.993445,-1.060942,-0.594798,0.186659,-0.335094,1.617903,7.490246,-4.814522,-0.6072,-0.616723,-3.27927,4.596175,9.652602,-2.983191,-3.435056,0.506981,-0.181392,1.006294
52685,0,8.803765,-0.044894,-0.702384,-0.107574,0.010643,0.021515,7.089029,-2.711972,-1.165997,1.079116,-0.362567,1.709373,10.148494,-0.512866,-0.230693,0.486164,-0.322621,1.723088,10.14463,-2.318542,1.01187,0.096744,-3.589483,4.895124,9.451389,-2.966228,-3.080994,0.493476,-0.119821,0.952161
52686,0,7.727315,-0.731728,-0.679351,-0.084343,-0.077705,-0.142021,7.069777,-3.480106,-0.637972,1.760889,-0.26094,1.337891,9.5886,0.08424,-0.147681,0.698463,-0.373666,1.762466,12.593639,-0.327288,2.123943,0.638889,-3.778835,5.20397,8.975154,-2.28845,-3.1607,0.568321,-0.087892,0.911191
52687,0,7.201329,-1.444299,-0.916469,0.049439,-0.147743,-0.226593,5.813643,-0.881236,-0.466377,2.01486,-0.241257,1.16966,9.574095,-0.077448,0.351103,0.910191,-0.371721,1.740498,14.866885,1.786784,0.785751,0.188344,-3.462329,5.36661,9.653502,-3.275672,-2.757503,0.713321,-0.100252,0.862897
52688,0,7.356696,-1.836995,-1.144496,0.128861,-0.151406,-0.262871,5.247648,1.406404,-0.349601,1.670226,-0.199937,1.0299,10.07125,0.480309,0.2619,1.132565,-0.384884,1.71796,14.34537,1.226507,0.901062,-0.033088,-3.07253,5.453179,10.194039,-2.08224,-2.810351,0.930651,-0.0935,0.874116
52689,0,7.623638,-1.774118,-1.288342,0.141907,-0.137215,-0.286103,5.059635,2.461748,0.821067,0.805335,-0.282445,0.898606,10.287672,0.628764,-0.908779,1.340981,-0.338307,1.735481,15.517956,2.971516,0.506402,0.168071,-2.94914,5.300874,10.232635,-2.664317,-3.146479,0.903299,-0.065919,0.902727
52690,0,8.035914,-1.352719,-1.369232,0.088806,-0.166397,-0.29068,5.297292,2.665056,2.185265,-0.271571,-0.515333,0.801096,10.761657,1.605687,-1.377726,1.415606,-0.255104,1.788019,14.903366,6.243457,0.126192,-0.027705,-2.822023,4.930469,10.926439,-2.427657,-3.573375,0.8827,-0.010414,0.958233
52691,0,8.728149,-1.364254,-1.413866,0.052757,-0.213776,-0.334168,6.951354,-0.071041,3.289012,-1.247443,-0.559289,0.823083,11.676466,3.151529,-0.767049,1.174686,-0.101972,1.828408,13.213808,10.106391,-0.574053,-0.94686,-2.687522,4.58605,12.233543,-2.814801,-2.629462,0.958121,0.00103,1.035485
52692,0,9.071175,-1.416107,-1.567424,0.02758,-0.272141,-0.386811,6.11502,-2.900258,3.305558,-1.796011,-0.694233,0.775376,12.257267,4.70066,1.386513,0.752482,0.08881,1.795314,11.788083,9.423814,-0.695566,-2.138925,-2.421116,4.275675,13.727715,-2.007101,-0.984388,1.177176,-0.081599,1.156233
52693,0,9.336446,-0.929681,-1.818491,-0.05024,-0.351106,-0.420229,5.247151,-4.544963,1.434483,-1.987282,-1.162224,0.603372,12.778189,5.083143,2.655718,0.578177,0.24228,1.672272,12.472801,6.29656,1.903006,-2.70469,-2.028947,3.734159,15.127347,-1.181145,0.406254,1.192521,-0.144087,1.383416
52694,0,9.669597,-0.331783,-2.211392,-0.206796,-0.459254,-0.471156,5.783422,-5.783092,0.620546,-1.586582,-1.465955,0.327205,13.578588,6.627164,4.164054,0.697426,0.42871,1.484691,13.019566,2.63404,4.899716,-2.153947,-1.659929,2.925536,16.715586,0.473043,1.347358,1.101662,-0.178308,1.729859
52695,0,10.023178,-0.417275,-2.034149,-0.46864,-0.568548,-0.566259,8.073273,-6.613621,0.82572,-1.332496,-1.443394,0.16938,13.557988,9.402698,5.677089,0.728782,0.842425,1.16367,13.116278,0.988228,7.2304,-0.652696,-1.121589,1.894342,18.070335,2.460206,2.990566,1.104317,-0.333733,2.164915
52696,0,9.776884,-0.955562,-1.743849,-0.634011,-0.590409,-0.669603,7.722625,-7.960848,2.451171,-1.284531,-1.206365,0.027696,14.037971,11.623763,5.469828,0.494744,1.478395,0.583324,12.239784,3.185124,6.932392,0.658961,-0.461318,0.811856,19.585078,5.358838,4.659706,1.033382,-0.488707,2.570578
52697,0,8.367051,-1.657638,-0.82406,-0.692492,-0.491645,-0.688486,5.30551,-7.607988,0.668682,-1.073487,-1.147533,-0.277413,11.782306,14.186436,6.894489,0.018426,2.119556,-0.094762,10.604323,4.491997,8.362793,1.437986,0.209203,-0.131381,21.750023,7.97169,5.439276,0.846971,-0.807942,3.114107
52698,0,6.463975,-2.164383,-0.106759,-0.414738,-0.586631,-0.655983,3.409412,-3.862852,-1.741848,-0.327194,-1.013625,-0.856151,7.8938,15.04768,10.149089,-0.323667,2.51471,-0.972259,8.074435,4.198313,9.336764,2.379198,0.789022,-0.993431,23.998083,10.690494,5.181698,0.615339,-1.181461,3.601155
52699,0,5.88422,-2.830093,1.166041,0.198213,-0.215494,-0.648655,4.340291,-0.300786,-1.975479,0.460184,-0.888095,-1.507473,5.526617,9.517212,7.900954,-0.951802,2.37115,-1.892616,10.325191,0.273599,-0.41865,4.046248,1.119621,-1.877748,23.644087,11.759224,3.977665,0.696518,-1.2875,3.982916
52700,0,7.414578,1.540081,9.220949,0.959153,0.865881,-0.654732,36.369363,-14.842435,11.054675,1.518205,-0.048757,-2.450988,8.982733,3.666561,-2.887983,-1.847876,2.274705,-2.716757,42.070119,-38.019544,-29.659475,4.814502,-0.711352,-1.590296,19.106387,9.931865,-4.286991,1.342468,-1.23155,4.04137
